text,rt,key_press,block_duration,timing_post_trial,trial_id,trial_type,trial_index,time_elapsed,internal_node_id,exp_id,full_screen,focus_shifts,view_history,mouse_click,stim_duration,exp_stage,stim,coded_response,trial_num,reference,stim_rating,reference_rating,responses,credit_var,subject
,1331.0,,1331.0,500.0,stim,single-stim-button,106,276093,0.0-105.0,dietary_decision,True,0,,Yes,1331.0,decision,100Grand,1.0,0.0,wwbrownie,"{""taste"":1,""health"":""NaN""}","{""taste"":1,""health"":1}",,,0
,3116.0,,3116.0,500.0,stim,single-stim-button,107,279713,0.0-106.0,dietary_decision,True,0,,Yes,3116.0,decision,Ghiradelli,1.0,1.0,wwbrownie,"{""taste"":1,""health"":-1}","{""taste"":1,""health"":1}",,,0
,1823.0,,1823.0,500.0,stim,single-stim-button,108,282044,0.0-107.0,dietary_decision,True,0,,Yes,1823.0,decision,grannysmith,1.0,2.0,wwbrownie,"{""taste"":1,""health"":2}","{""taste"":1,""health"":1}",,,0
,1199.0,,1199.0,500.0,stim,single-stim-button,109,283747,0.0-108.0,dietary_decision,True,0,,Yes,1199.0,decision,icecreamsandwich,1.0,3.0,wwbrownie,"{""taste"":1,""health"":-1}","{""taste"":1,""health"":1}",,,0
,2567.0,,2567.0,500.0,stim,single-stim-button,110,286829,0.0-109.0,dietary_decision,True,0,,No,2567.0,decision,wheatcrisps,-1.0,4.0,wwbrownie,"{""taste"":-1,""health"":1}","{""taste"":1,""health"":1}",,,0
,2388.0,,2388.0,500.0,stim,single-stim-button,111,289723,0.0-110.0,dietary_decision,True,0,,No,2388.0,decision,slimfastC,-1.0,5.0,wwbrownie,"{""taste"":-1,""health"":0}","{""taste"":1,""health"":1}",,,0
,1337.0,,1337.0,500.0,stim,single-stim-button,112,291572,0.0-111.0,dietary_decision,True,0,,Strong_Yes,1337.0,decision,laysclassic,2.0,6.0,wwbrownie,"{""taste"":1,""health"":-1}","{""taste"":1,""health"":1}",,,0
,1943.0,,1943.0,500.0,stim,single-stim-button,113,294031,0.0-112.0,dietary_decision,True,0,,Strong_No,1943.0,decision,blueberryyogart,-2.0,7.0,wwbrownie,"{""taste"":0,""health"":1}","{""taste"":1,""health"":1}",,,0
,1822.0,,1822.0,500.0,stim,single-stim-button,114,296357,0.0-113.0,dietary_decision,True,0,,Strong_No,1822.0,decision,cellery,-2.0,8.0,wwbrownie,"{""taste"":0,""health"":1}","{""taste"":1,""health"":1}",,,0
,1399.0,,1399.0,500.0,stim,single-stim-button,115,298263,0.0-114.0,dietary_decision,True,0,,Strong_Yes,1399.0,decision,cookiencream,2.0,9.0,wwbrownie,"{""taste"":2,""health"":-1}","{""taste"":1,""health"":1}",,,0
,1463.0,,1463.0,500.0,stim,single-stim-button,116,300228,0.0-115.0,dietary_decision,True,0,,Yes,1463.0,decision,redgrapes,1.0,10.0,wwbrownie,"{""taste"":1,""health"":2}","{""taste"":1,""health"":1}",,,0
,1799.0,,1799.0,500.0,stim,single-stim-button,117,302530,0.0-116.0,dietary_decision,True,0,,No,1799.0,decision,cranberries,-1.0,11.0,wwbrownie,"{""taste"":1,""health"":0}","{""taste"":1,""health"":1}",,,0
,3302.0,,3302.0,500.0,stim,single-stim-button,118,306336,0.0-117.0,dietary_decision,True,0,,Yes,3302.0,decision,sbcrackers,1.0,12.0,wwbrownie,"{""taste"":-1,""health"":1}","{""taste"":1,""health"":1}",,,0
,1589.0,,1589.0,500.0,stim,single-stim-button,119,308427,0.0-118.0,dietary_decision,True,0,,Yes,1589.0,decision,orangejello,1.0,13.0,wwbrownie,"{""taste"":1,""health"":0}","{""taste"":1,""health"":1}",,,0
,2088.0,,2088.0,500.0,stim,single-stim-button,120,311028,0.0-119.0,dietary_decision,True,0,,Yes,2088.0,decision,raisins,1.0,14.0,wwbrownie,"{""taste"":1,""health"":1}","{""taste"":1,""health"":1}",,,0
,1752.0,,1752.0,500.0,stim,single-stim-button,121,313293,0.0-120.0,dietary_decision,True,0,,Neutral,1752.0,decision,ruffles,0.0,15.0,wwbrownie,"{""taste"":0,""health"":1}","{""taste"":1,""health"":1}",,,0
,1648.0,,1648.0,500.0,stim,single-stim-button,122,315446,0.0-121.0,dietary_decision,True,0,,Yes,1648.0,decision,whitegrapes,1.0,16.0,wwbrownie,"{""taste"":1,""health"":2}","{""taste"":1,""health"":1}",,,0
,1417.0,,1417.0,500.0,stim,single-stim-button,123,317368,0.0-122.0,dietary_decision,True,0,,Strong_Yes,1417.0,decision,Oreos,2.0,17.0,wwbrownie,"{""taste"":""NaN"",""health"":-2}","{""taste"":1,""health"":1}",,,0
,2304.0,,2304.0,500.0,stim,single-stim-button,124,320180,0.0-123.0,dietary_decision,True,0,,Neutral,2304.0,decision,cherryicecream,0.0,18.0,wwbrownie,"{""taste"":1,""health"":1}","{""taste"":1,""health"":1}",,,0
,2761.0,,2761.0,500.0,stim,single-stim-button,125,323455,0.0-124.0,dietary_decision,True,0,,Strong_No,2761.0,decision,RiceKrispyTreat,-2.0,19.0,wwbrownie,"{""taste"":-1,""health"":1}","{""taste"":1,""health"":1}",,,0
,1301.0,,1301.0,500.0,stim,single-stim-button,126,325261,0.0-125.0,dietary_decision,True,0,,Yes,1301.0,decision,strawberries,1.0,20.0,wwbrownie,"{""taste"":1,""health"":2}","{""taste"":1,""health"":1}",,,0
,1494.0,,1494.0,500.0,stim,single-stim-button,127,327270,0.0-126.0,dietary_decision,True,0,,Yes,1494.0,decision,orange,1.0,21.0,wwbrownie,"{""taste"":1,""health"":2}","{""taste"":1,""health"":1}",,,0
,2710.0,,2710.0,500.0,stim,single-stim-button,128,330493,0.0-127.0,dietary_decision,True,0,,Yes,2710.0,decision,FamousAmos,1.0,22.0,wwbrownie,"{""taste"":1,""health"":-1}","{""taste"":1,""health"":1}",,,0
,2071.0,,2071.0,500.0,stim,single-stim-button,129,333076,0.0-128.0,dietary_decision,True,0,,Neutral,2071.0,decision,sbdietbar,0.0,23.0,wwbrownie,"{""taste"":1,""health"":1}","{""taste"":1,""health"":1}",,,0
,1239.0,,1239.0,500.0,stim,single-stim-button,130,334828,0.0-129.0,dietary_decision,True,0,,Yes,1239.0,decision,banana,1.0,24.0,wwbrownie,"{""taste"":1,""health"":2}","{""taste"":1,""health"":1}",,,0
,1641.0,,1641.0,500.0,stim,single-stim-button,131,336980,0.0-130.0,dietary_decision,True,0,,No,1641.0,decision,specialKbar,-1.0,25.0,wwbrownie,"{""taste"":0,""health"":1}","{""taste"":1,""health"":1}",,,0
,1590.0,,1590.0,500.0,stim,single-stim-button,132,339086,0.0-131.0,dietary_decision,True,0,,Neutral,1590.0,decision,butterfinger,0.0,26.0,wwbrownie,"{""taste"":1,""health"":0}","{""taste"":1,""health"":1}",,,0
,1448.0,,1448.0,500.0,stim,single-stim-button,133,341042,0.0-132.0,dietary_decision,True,0,,Yes,1448.0,decision,uTwix,1.0,27.0,wwbrownie,"{""taste"":2,""health"":-1}","{""taste"":1,""health"":1}",,,0
,1885.0,,1885.0,500.0,stim,single-stim-button,134,343433,0.0-133.0,dietary_decision,True,0,,No,1885.0,decision,keeblerfudgestripes,-1.0,28.0,wwbrownie,"{""taste"":1,""health"":-1}","{""taste"":1,""health"":1}",,,0
,1265.0,,1265.0,500.0,stim,single-stim-button,135,345209,0.0-134.0,dietary_decision,True,0,,No,1265.0,decision,mixedyogart,-1.0,29.0,wwbrownie,"{""taste"":-1,""health"":1}","{""taste"":1,""health"":1}",,,0
,1819.0,,1819.0,500.0,stim,single-stim-button,136,347535,0.0-135.0,dietary_decision,True,0,,Strong_No,1819.0,decision,brocollincauliflower,-2.0,30.0,wwbrownie,"{""taste"":-2,""health"":2}","{""taste"":1,""health"":1}",,,0
,1554.0,,1554.0,500.0,stim,single-stim-button,137,349598,0.0-136.0,dietary_decision,True,0,,No,1554.0,decision,ffraspsorbet,-1.0,31.0,wwbrownie,"{""taste"":0,""health"":1}","{""taste"":1,""health"":1}",,,0
,1255.0,,1255.0,500.0,stim,single-stim-button,138,351363,0.0-137.0,dietary_decision,True,0,,No,1255.0,decision,Reeses,-1.0,32.0,wwbrownie,"{""taste"":0,""health"":-1}","{""taste"":1,""health"":1}",,,0
,2607.0,,2607.0,500.0,stim,single-stim-button,139,354472,0.0-138.0,dietary_decision,True,0,,Strong_No,2607.0,decision,carrots,-2.0,33.0,wwbrownie,"{""taste"":-2,""health"":2}","{""taste"":1,""health"":1}",,,0
,1995.0,,1995.0,500.0,stim,single-stim-button,140,356973,0.0-139.0,dietary_decision,True,0,,No,1995.0,decision,strussel,-1.0,34.0,wwbrownie,"{""taste"":1,""health"":0}","{""taste"":1,""health"":1}",,,0
,1557.0,,1557.0,500.0,stim,single-stim-button,141,359034,0.0-140.0,dietary_decision,True,0,,Strong_No,1557.0,decision,FlamingCheetos,-2.0,35.0,wwbrownie,"{""taste"":1,""health"":-2}","{""taste"":1,""health"":1}",,,0
,1959.0,,1959.0,500.0,stim,single-stim-button,142,361500,0.0-141.0,dietary_decision,True,0,,No,1959.0,decision,HoHo,-1.0,36.0,wwbrownie,"{""taste"":1,""health"":1}","{""taste"":1,""health"":1}",,,0
,1510.0,,1510.0,500.0,stim,single-stim-button,143,363520,0.0-142.0,dietary_decision,True,0,,No,1510.0,decision,slimfastV,-1.0,37.0,wwbrownie,"{""taste"":0,""health"":0}","{""taste"":1,""health"":1}",,,0
,2002.0,,2002.0,500.0,stim,single-stim-button,144,366034,0.0-143.0,dietary_decision,True,0,,No,2002.0,decision,keeblerrainbow,-1.0,38.0,wwbrownie,"{""taste"":1,""health"":0}","{""taste"":1,""health"":1}",,,0
,2756.0,,2756.0,500.0,stim,single-stim-button,145,369298,0.0-144.0,dietary_decision,True,0,,Yes,2756.0,decision,reddelicious,1.0,39.0,wwbrownie,"{""taste"":1,""health"":2}","{""taste"":1,""health"":1}",,,0
,1630.0,,1630.0,500.0,stim,single-stim-button,146,371442,0.0-145.0,dietary_decision,True,0,,Yes,1630.0,decision,Lindt,1.0,40.0,wwbrownie,"{""taste"":2,""health"":-1}","{""taste"":1,""health"":1}",,,0
,1475.0,,1475.0,500.0,stim,single-stim-button,147,373430,0.0-146.0,dietary_decision,True,0,,Neutral,1475.0,decision,MrsFields,0.0,41.0,wwbrownie,"{""taste"":1,""health"":0}","{""taste"":1,""health"":1}",,,0
,1356.0,,1356.0,500.0,stim,single-stim-button,148,375292,0.0-147.0,dietary_decision,True,0,,Yes,1356.0,decision,uToberlorone,1.0,42.0,wwbrownie,"{""taste"":1,""health"":-2}","{""taste"":1,""health"":1}",,,0
,1748.0,,1748.0,500.0,stim,single-stim-button,149,377556,0.0-148.0,dietary_decision,True,0,,No,1748.0,decision,frozenyogart,-1.0,43.0,wwbrownie,"{""taste"":1,""health"":1}","{""taste"":1,""health"":1}",,,0
,2152.0,,2152.0,500.0,stim,single-stim-button,150,380221,0.0-149.0,dietary_decision,True,0,,Yes,2152.0,decision,cookies,1.0,44.0,wwbrownie,"{""taste"":1,""health"":-1}","{""taste"":1,""health"":1}",,,0
,1475.0,,1475.0,500.0,stim,single-stim-button,151,382201,0.0-150.0,dietary_decision,True,0,,Strong_Yes,1475.0,decision,KitKat,2.0,45.0,wwbrownie,"{""taste"":2,""health"":-2}","{""taste"":1,""health"":1}",,,0
,1508.0,,1508.0,500.0,stim,single-stim-button,152,384220,0.0-151.0,dietary_decision,True,0,,Yes,1508.0,decision,Doritosranch,1.0,46.0,wwbrownie,"{""taste"":1,""health"":-2}","{""taste"":1,""health"":1}",,,0
,2955.0,,2955.0,500.0,stim,single-stim-button,153,387680,0.0-152.0,dietary_decision,True,0,,Neutral,2955.0,decision,wwmuffin,0.0,47.0,wwbrownie,"{""taste"":0,""health"":1}","{""taste"":1,""health"":1}",,,0
,2307.0,,2307.0,500.0,stim,single-stim-button,154,390492,0.0-153.0,dietary_decision,True,0,,Yes,2307.0,decision,ChipsAhoy,1.0,48.0,wwbrownie,"{""taste"":1,""health"":-1}","{""taste"":1,""health"":1}",,,0
,1955.0,,1955.0,500.0,stim,single-stim-button,106,284970,0.0-105.0,dietary_decision,True,0,,No,1955.0,decision,Doritosranch,-1.0,0.0,FamousAmos,"{""taste"":1,""health"":-1}","{""taste"":1,""health"":0}",,,1
,2055.0,,2055.0,500.0,stim,single-stim-button,107,287527,0.0-106.0,dietary_decision,True,0,,Yes,2055.0,decision,ChipsAhoy,1.0,1.0,FamousAmos,"{""taste"":1,""health"":1}","{""taste"":1,""health"":0}",,,1
,1972.0,,1972.0,500.0,stim,single-stim-button,108,290005,0.0-107.0,dietary_decision,True,0,,Strong_Yes,1972.0,decision,Lindt,2.0,2.0,FamousAmos,"{""taste"":2,""health"":""NaN""}","{""taste"":1,""health"":0}",,,1
,1571.0,,1571.0,500.0,stim,single-stim-button,109,292088,0.0-108.0,dietary_decision,True,0,,Yes,1571.0,decision,laysclassic,1.0,3.0,FamousAmos,"{""taste"":1,""health"":-1}","{""taste"":1,""health"":0}",,,1
,1944.0,,1944.0,500.0,stim,single-stim-button,110,294544,0.0-109.0,dietary_decision,True,0,,No,1944.0,decision,frozenyogart,-1.0,4.0,FamousAmos,"{""taste"":2,""health"":1}","{""taste"":1,""health"":0}",,,1
,1464.0,,1464.0,500.0,stim,single-stim-button,111,296521,0.0-110.0,dietary_decision,True,0,,Yes,1464.0,decision,KitKat,1.0,5.0,FamousAmos,"{""taste"":2,""health"":1}","{""taste"":1,""health"":0}",,,1
,1778.0,,1778.0,500.0,stim,single-stim-button,112,298812,0.0-111.0,dietary_decision,True,0,,Strong_No,1778.0,decision,strawberries,-2.0,6.0,FamousAmos,"{""taste"":0,""health"":-1}","{""taste"":1,""health"":0}",,,1
,2177.0,,2177.0,500.0,stim,single-stim-button,113,301494,0.0-112.0,dietary_decision,True,0,,Yes,2177.0,decision,Reeses,1.0,7.0,FamousAmos,"{""taste"":2,""health"":0}","{""taste"":1,""health"":0}",,,1
,1709.0,,1709.0,500.0,stim,single-stim-button,114,303711,0.0-113.0,dietary_decision,True,0,,Neutral,1709.0,decision,butterfinger,0.0,8.0,FamousAmos,"{""taste"":2,""health"":1}","{""taste"":1,""health"":0}",,,1
,1136.0,,1136.0,500.0,stim,single-stim-button,115,305352,0.0-114.0,dietary_decision,True,0,,Yes,1136.0,decision,orange,1.0,9.0,FamousAmos,"{""taste"":2,""health"":-1}","{""taste"":1,""health"":0}",,,1
,1314.0,,1314.0,500.0,stim,single-stim-button,116,307178,0.0-115.0,dietary_decision,True,0,,Yes,1314.0,decision,RiceKrispyTreat,1.0,10.0,FamousAmos,"{""taste"":1,""health"":1}","{""taste"":1,""health"":0}",,,1
,1501.0,,1501.0,500.0,stim,single-stim-button,117,309185,0.0-116.0,dietary_decision,True,0,,Neutral,1501.0,decision,slimfastV,0.0,11.0,FamousAmos,"{""taste"":2,""health"":0}","{""taste"":1,""health"":0}",,,1
,1687.0,,1687.0,500.0,stim,single-stim-button,118,311387,0.0-117.0,dietary_decision,True,0,,No,1687.0,decision,redgrapes,-1.0,12.0,FamousAmos,"{""taste"":1,""health"":1}","{""taste"":1,""health"":0}",,,1
,1738.0,,1738.0,500.0,stim,single-stim-button,119,313628,0.0-118.0,dietary_decision,True,0,,Yes,1738.0,decision,mixedyogart,1.0,13.0,FamousAmos,"{""taste"":0,""health"":0}","{""taste"":1,""health"":0}",,,1
,870.0,,870.0,500.0,stim,single-stim-button,120,315011,0.0-119.0,dietary_decision,True,0,,Yes,870.0,decision,HoHo,1.0,14.0,FamousAmos,"{""taste"":2,""health"":0}","{""taste"":1,""health"":0}",,,1
,688.0,,688.0,500.0,stim,single-stim-button,121,316205,0.0-120.0,dietary_decision,True,0,,Yes,688.0,decision,carrots,1.0,15.0,FamousAmos,"{""taste"":1,""health"":0}","{""taste"":1,""health"":0}",,,1
,888.0,,888.0,500.0,stim,single-stim-button,122,317604,0.0-121.0,dietary_decision,True,0,,Yes,888.0,decision,uTwix,1.0,16.0,FamousAmos,"{""taste"":0,""health"":0}","{""taste"":1,""health"":0}",,,1
,688.0,,688.0,500.0,stim,single-stim-button,123,318794,0.0-122.0,dietary_decision,True,0,,Yes,688.0,decision,FlamingCheetos,1.0,17.0,FamousAmos,"{""taste"":0,""health"":-1}","{""taste"":1,""health"":0}",,,1
,1945.0,,1945.0,500.0,stim,single-stim-button,124,321252,0.0-123.0,dietary_decision,True,0,,Yes,1945.0,decision,uToberlorone,1.0,18.0,FamousAmos,"{""taste"":""NaN"",""health"":1}","{""taste"":1,""health"":0}",,,1
,1460.0,,1460.0,500.0,stim,single-stim-button,125,323228,0.0-124.0,dietary_decision,True,0,,Yes,1460.0,decision,specialKbar,1.0,19.0,FamousAmos,"{""taste"":1,""health"":1}","{""taste"":1,""health"":0}",,,1
,669.0,,669.0,500.0,stim,single-stim-button,126,324411,0.0-125.0,dietary_decision,True,0,,Yes,669.0,decision,blueberryyogart,1.0,20.0,FamousAmos,"{""taste"":1,""health"":1}","{""taste"":1,""health"":0}",,,1
,770.0,,770.0,500.0,stim,single-stim-button,127,325696,0.0-126.0,dietary_decision,True,0,,Yes,770.0,decision,brocollincauliflower,1.0,21.0,FamousAmos,"{""taste"":1,""health"":1}","{""taste"":1,""health"":0}",,,1
,660.0,,660.0,500.0,stim,single-stim-button,128,326863,0.0-127.0,dietary_decision,True,0,,Yes,660.0,decision,banana,1.0,22.0,FamousAmos,"{""taste"":2,""health"":1}","{""taste"":1,""health"":0}",,,1
,589.0,,589.0,500.0,stim,single-stim-button,129,327962,0.0-128.0,dietary_decision,True,0,,Yes,589.0,decision,keeblerrainbow,1.0,23.0,FamousAmos,"{""taste"":1,""health"":1}","{""taste"":1,""health"":0}",,,1
,602.0,,602.0,500.0,stim,single-stim-button,130,329077,0.0-129.0,dietary_decision,True,0,,Yes,602.0,decision,keeblerfudgestripes,1.0,24.0,FamousAmos,"{""taste"":1,""health"":1}","{""taste"":1,""health"":0}",,,1
,650.0,,650.0,500.0,stim,single-stim-button,131,330243,0.0-130.0,dietary_decision,True,0,,Yes,650.0,decision,icecreamsandwich,1.0,25.0,FamousAmos,"{""taste"":2,""health"":0}","{""taste"":1,""health"":0}",,,1
,834.0,,834.0,500.0,stim,single-stim-button,132,331592,0.0-131.0,dietary_decision,True,0,,Yes,834.0,decision,Oreos,1.0,26.0,FamousAmos,"{""taste"":2,""health"":1}","{""taste"":1,""health"":0}",,,1
,668.0,,668.0,500.0,stim,single-stim-button,133,332770,0.0-132.0,dietary_decision,True,0,,Yes,668.0,decision,cherryicecream,1.0,27.0,FamousAmos,"{""taste"":2,""health"":0}","{""taste"":1,""health"":0}",,,1
,530.0,,530.0,500.0,stim,single-stim-button,134,333804,0.0-133.0,dietary_decision,True,0,,Yes,530.0,decision,MrsFields,1.0,28.0,FamousAmos,"{""taste"":2,""health"":1}","{""taste"":1,""health"":0}",,,1
,1320.0,,1320.0,500.0,stim,single-stim-button,135,335638,0.0-134.0,dietary_decision,True,0,,Yes,1320.0,decision,strussel,1.0,29.0,FamousAmos,"{""taste"":0,""health"":0}","{""taste"":1,""health"":0}",,,1
,641.0,,641.0,500.0,stim,single-stim-button,136,336790,0.0-135.0,dietary_decision,True,0,,Yes,641.0,decision,100Grand,1.0,30.0,FamousAmos,"{""taste"":1,""health"":1}","{""taste"":1,""health"":0}",,,1
,559.0,,559.0,500.0,stim,single-stim-button,137,337862,0.0-136.0,dietary_decision,True,0,,Yes,559.0,decision,cookies,1.0,31.0,FamousAmos,"{""taste"":1,""health"":1}","{""taste"":1,""health"":0}",,,1
,612.0,,612.0,500.0,stim,single-stim-button,138,338985,0.0-137.0,dietary_decision,True,0,,Yes,612.0,decision,cranberries,1.0,32.0,FamousAmos,"{""taste"":2,""health"":0}","{""taste"":1,""health"":0}",,,1
,659.0,,659.0,500.0,stim,single-stim-button,139,340161,0.0-138.0,dietary_decision,True,0,,Yes,659.0,decision,whitegrapes,1.0,33.0,FamousAmos,"{""taste"":2,""health"":1}","{""taste"":1,""health"":0}",,,1
,800.0,,800.0,500.0,stim,single-stim-button,140,341469,0.0-139.0,dietary_decision,True,0,,Yes,800.0,decision,Ghiradelli,1.0,34.0,FamousAmos,"{""taste"":2,""health"":-1}","{""taste"":1,""health"":0}",,,1
,688.0,,688.0,500.0,stim,single-stim-button,141,342663,0.0-140.0,dietary_decision,True,0,,Yes,688.0,decision,ruffles,1.0,35.0,FamousAmos,"{""taste"":0,""health"":-1}","{""taste"":1,""health"":0}",,,1
,572.0,,572.0,500.0,stim,single-stim-button,142,343739,0.0-141.0,dietary_decision,True,0,,Yes,572.0,decision,cookiencream,1.0,36.0,FamousAmos,"{""taste"":1,""health"":1}","{""taste"":1,""health"":0}",,,1
,554.0,,554.0,500.0,stim,single-stim-button,143,344804,0.0-142.0,dietary_decision,True,0,,Yes,554.0,decision,wheatcrisps,1.0,37.0,FamousAmos,"{""taste"":""NaN"",""health"":0}","{""taste"":1,""health"":0}",,,1
,562.0,,562.0,500.0,stim,single-stim-button,144,345871,0.0-143.0,dietary_decision,True,0,,Yes,562.0,decision,sbdietbar,1.0,38.0,FamousAmos,"{""taste"":1,""health"":1}","{""taste"":1,""health"":0}",,,1
,642.0,,642.0,500.0,stim,single-stim-button,145,347026,0.0-144.0,dietary_decision,True,0,,Yes,642.0,decision,wwbrownie,1.0,39.0,FamousAmos,"{""taste"":1,""health"":0}","{""taste"":1,""health"":0}",,,1
,620.0,,620.0,500.0,stim,single-stim-button,146,348153,0.0-145.0,dietary_decision,True,0,,Yes,620.0,decision,orangejello,1.0,40.0,FamousAmos,"{""taste"":2,""health"":0}","{""taste"":1,""health"":0}",,,1
,636.0,,636.0,500.0,stim,single-stim-button,147,349294,0.0-146.0,dietary_decision,True,0,,Yes,636.0,decision,ffraspsorbet,1.0,41.0,FamousAmos,"{""taste"":2,""health"":-1}","{""taste"":1,""health"":0}",,,1
,1520.0,,1520.0,500.0,stim,single-stim-button,148,351328,0.0-147.0,dietary_decision,True,0,,No,1520.0,decision,sbcrackers,-1.0,42.0,FamousAmos,"{""taste"":0,""health"":0}","{""taste"":1,""health"":0}",,,1
,1047.0,,1047.0,500.0,stim,single-stim-button,149,352886,0.0-148.0,dietary_decision,True,0,,No,1047.0,decision,reddelicious,-1.0,43.0,FamousAmos,"{""taste"":2,""health"":0}","{""taste"":1,""health"":0}",,,1
,713.0,,713.0,500.0,stim,single-stim-button,150,354111,0.0-149.0,dietary_decision,True,0,,No,713.0,decision,raisins,-1.0,44.0,FamousAmos,"{""taste"":1,""health"":1}","{""taste"":1,""health"":0}",,,1
,853.0,,853.0,500.0,stim,single-stim-button,151,355470,0.0-150.0,dietary_decision,True,0,,No,853.0,decision,slimfastC,-1.0,45.0,FamousAmos,"{""taste"":1,""health"":1}","{""taste"":1,""health"":0}",,,1
,751.0,,751.0,500.0,stim,single-stim-button,152,356728,0.0-151.0,dietary_decision,True,0,,No,751.0,decision,grannysmith,-1.0,46.0,FamousAmos,"{""taste"":1,""health"":""NaN""}","{""taste"":1,""health"":0}",,,1
,701.0,,701.0,500.0,stim,single-stim-button,153,357942,0.0-152.0,dietary_decision,True,0,,No,701.0,decision,cellery,-1.0,47.0,FamousAmos,"{""taste"":1,""health"":0}","{""taste"":1,""health"":0}",,,1
,761.0,,761.0,500.0,stim,single-stim-button,154,359210,0.0-153.0,dietary_decision,True,0,,No,761.0,decision,wwmuffin,-1.0,48.0,FamousAmos,"{""taste"":2,""health"":0}","{""taste"":1,""health"":0}",,,1
,3097.0,,3097.0,500.0,stim,single-stim-button,108,300054,0.0-108.0,dietary_decision,True,0,,Neutral,3097.0,decision,orangejello,0.0,2.0,Doritosranch,"{""health"":-1,""taste"":-1}","{""health"":-1,""taste"":1}",,,2
,997.0,,997.0,500.0,stim,single-stim-button,109,301562,0.0-109.0,dietary_decision,True,0,,Neutral,997.0,decision,FamousAmos,0.0,3.0,Doritosranch,"{""health"":-1,""taste"":2}","{""health"":-1,""taste"":1}",,,2
,580.0,,580.0,500.0,stim,single-stim-button,110,302652,0.0-110.0,dietary_decision,True,0,,Neutral,580.0,decision,butterfinger,0.0,4.0,Doritosranch,"{""health"":-1,""taste"":-2}","{""health"":-1,""taste"":1}",,,2
,498.0,,498.0,500.0,stim,single-stim-button,111,303664,0.0-111.0,dietary_decision,True,0,,Neutral,498.0,decision,keeblerrainbow,0.0,5.0,Doritosranch,"{""health"":-2,""taste"":1}","{""health"":-1,""taste"":1}",,,2
,390.0,,390.0,500.0,stim,single-stim-button,112,304566,0.0-112.0,dietary_decision,True,0,,Neutral,390.0,decision,MrsFields,0.0,6.0,Doritosranch,"{""health"":-1,""taste"":1}","{""health"":-1,""taste"":1}",,,2
,296.0,,296.0,500.0,stim,single-stim-button,113,305374,0.0-113.0,dietary_decision,True,0,,Neutral,296.0,decision,Ghiradelli,0.0,7.0,Doritosranch,"{""health"":""NaN"",""taste"":-2}","{""health"":-1,""taste"":1}",,,2
,249.0,,249.0,500.0,stim,single-stim-button,114,306136,0.0-114.0,dietary_decision,True,0,,Neutral,249.0,decision,RiceKrispyTreat,0.0,8.0,Doritosranch,"{""health"":1,""taste"":1}","{""health"":-1,""taste"":1}",,,2
,685.0,,685.0,500.0,stim,single-stim-button,115,307334,0.0-115.0,dietary_decision,True,0,,Neutral,685.0,decision,cherryicecream,0.0,9.0,Doritosranch,"{""health"":-2,""taste"":0}","{""health"":-1,""taste"":1}",,,2
,361.0,,361.0,500.0,stim,single-stim-button,116,308206,0.0-116.0,dietary_decision,True,0,,Neutral,361.0,decision,strawberries,0.0,10.0,Doritosranch,"{""health"":2,""taste"":1}","{""health"":-1,""taste"":1}",,,2
,448.0,,448.0,500.0,stim,single-stim-button,117,309166,0.0-117.0,dietary_decision,True,0,,Neutral,448.0,decision,sbdietbar,0.0,11.0,Doritosranch,"{""health"":""NaN"",""taste"":1}","{""health"":-1,""taste"":1}",,,2
,264.0,,264.0,500.0,stim,single-stim-button,118,309932,0.0-118.0,dietary_decision,True,0,,Neutral,264.0,decision,Oreos,0.0,12.0,Doritosranch,"{""health"":-2,""taste"":1}","{""health"":-1,""taste"":1}",,,2
,360.0,,360.0,500.0,stim,single-stim-button,119,310806,0.0-119.0,dietary_decision,True,0,,Neutral,360.0,decision,uTwix,0.0,13.0,Doritosranch,"{""health"":-1,""taste"":0}","{""health"":-1,""taste"":1}",,,2
,368.0,,368.0,500.0,stim,single-stim-button,120,311682,0.0-120.0,dietary_decision,True,0,,Neutral,368.0,decision,grannysmith,0.0,14.0,Doritosranch,"{""health"":2,""taste"":2}","{""health"":-1,""taste"":1}",,,2
,267.0,,267.0,500.0,stim,single-stim-button,121,312462,0.0-121.0,dietary_decision,True,0,,Neutral,267.0,decision,icecreamsandwich,0.0,15.0,Doritosranch,"{""health"":-2,""taste"":2}","{""health"":-1,""taste"":1}",,,2
,417.0,,417.0,500.0,stim,single-stim-button,122,313392,0.0-122.0,dietary_decision,True,0,,Neutral,417.0,decision,blueberryyogart,0.0,16.0,Doritosranch,"{""health"":-2,""taste"":-1}","{""health"":-1,""taste"":1}",,,2
,202.0,,202.0,500.0,stim,single-stim-button,123,314102,0.0-123.0,dietary_decision,True,0,,Neutral,202.0,decision,cookiencream,0.0,17.0,Doritosranch,"{""health"":-1,""taste"":1}","{""health"":-1,""taste"":1}",,,2
,748.0,,748.0,500.0,stim,single-stim-button,124,315353,0.0-124.0,dietary_decision,True,0,,Neutral,748.0,decision,cranberries,0.0,18.0,Doritosranch,"{""health"":2,""taste"":-1}","{""health"":-1,""taste"":1}",,,2
,1697.0,,1697.0,500.0,stim,single-stim-button,125,317559,0.0-125.0,dietary_decision,True,0,,Neutral,1697.0,decision,cookies,0.0,19.0,Doritosranch,"{""health"":-1,""taste"":1}","{""health"":-1,""taste"":1}",,,2
,1148.0,,1148.0,500.0,stim,single-stim-button,126,319208,0.0-126.0,dietary_decision,True,0,,Neutral,1148.0,decision,whitegrapes,0.0,20.0,Doritosranch,"{""health"":2,""taste"":1}","{""health"":-1,""taste"":1}",,,2
,422.0,,422.0,500.0,stim,single-stim-button,127,320137,0.0-127.0,dietary_decision,True,0,,Neutral,422.0,decision,Lindt,0.0,21.0,Doritosranch,"{""health"":0,""taste"":0}","{""health"":-1,""taste"":1}",,,2
,610.0,,610.0,500.0,stim,single-stim-button,129,325776,0.0-129.0,dietary_decision,True,0,,Neutral,610.0,decision,sbcrackers,0.0,23.0,Doritosranch,"{""health"":0,""taste"":1}","{""health"":-1,""taste"":1}",,,2
,294.0,,294.0,500.0,stim,single-stim-button,130,326583,0.0-130.0,dietary_decision,True,0,,Neutral,294.0,decision,carrots,0.0,24.0,Doritosranch,"{""health"":2,""taste"":2}","{""health"":-1,""taste"":1}",,,2
,547.0,,547.0,500.0,stim,single-stim-button,131,327639,0.0-131.0,dietary_decision,True,0,,Neutral,547.0,decision,redgrapes,0.0,25.0,Doritosranch,"{""health"":2,""taste"":0}","{""health"":-1,""taste"":1}",,,2
,938.0,,938.0,500.0,stim,single-stim-button,132,329086,0.0-132.0,dietary_decision,True,0,,Neutral,938.0,decision,Reeses,0.0,26.0,Doritosranch,"{""health"":-2,""taste"":-1}","{""health"":-1,""taste"":1}",,,2
,579.0,,579.0,500.0,stim,single-stim-button,133,330173,0.0-133.0,dietary_decision,True,0,,Neutral,579.0,decision,HoHo,0.0,27.0,Doritosranch,"{""health"":""NaN"",""taste"":-1}","{""health"":-1,""taste"":1}",,,2
,547.0,,547.0,500.0,stim,single-stim-button,134,331225,0.0-134.0,dietary_decision,True,0,,Neutral,547.0,decision,laysclassic,0.0,28.0,Doritosranch,"{""health"":-1,""taste"":1}","{""health"":-1,""taste"":1}",,,2
,917.0,,917.0,500.0,stim,single-stim-button,135,332650,0.0-135.0,dietary_decision,True,0,,Neutral,917.0,decision,ffraspsorbet,0.0,29.0,Doritosranch,"{""health"":-1,""taste"":0}","{""health"":-1,""taste"":1}",,,2
,461.0,,461.0,500.0,stim,single-stim-button,136,333614,0.0-136.0,dietary_decision,True,0,,Neutral,461.0,decision,orange,0.0,30.0,Doritosranch,"{""health"":2,""taste"":2}","{""health"":-1,""taste"":1}",,,2
,314.0,,314.0,500.0,stim,single-stim-button,137,334442,0.0-137.0,dietary_decision,True,0,,Neutral,314.0,decision,wwbrownie,0.0,31.0,Doritosranch,"{""health"":0,""taste"":0}","{""health"":-1,""taste"":1}",,,2
,235.0,,235.0,500.0,stim,single-stim-button,138,335188,0.0-138.0,dietary_decision,True,0,,Neutral,235.0,decision,cellery,0.0,32.0,Doritosranch,"{""health"":""NaN"",""taste"":0}","{""health"":-1,""taste"":1}",,,2
,763.0,,763.0,500.0,stim,single-stim-button,139,336459,0.0-139.0,dietary_decision,True,0,,Neutral,763.0,decision,FlamingCheetos,0.0,33.0,Doritosranch,"{""health"":-1,""taste"":1}","{""health"":-1,""taste"":1}",,,2
,300.0,,300.0,500.0,stim,single-stim-button,140,337265,0.0-140.0,dietary_decision,True,0,,Neutral,300.0,decision,brocollincauliflower,0.0,34.0,Doritosranch,"{""health"":""NaN"",""taste"":1}","{""health"":-1,""taste"":1}",,,2
,718.0,,718.0,500.0,stim,single-stim-button,141,338494,0.0-141.0,dietary_decision,True,0,,Neutral,718.0,decision,mixedyogart,0.0,35.0,Doritosranch,"{""health"":1,""taste"":1}","{""health"":-1,""taste"":1}",,,2
,1857.0,,1857.0,500.0,stim,single-stim-button,142,340862,0.0-142.0,dietary_decision,True,0,,Neutral,1857.0,decision,ruffles,0.0,36.0,Doritosranch,"{""health"":0,""taste"":0}","{""health"":-1,""taste"":1}",,,2
,596.0,,596.0,500.0,stim,single-stim-button,143,341970,0.0-143.0,dietary_decision,True,0,,Neutral,596.0,decision,ChipsAhoy,0.0,37.0,Doritosranch,"{""health"":-2,""taste"":1}","{""health"":-1,""taste"":1}",,,2
,388.0,,388.0,500.0,stim,single-stim-button,144,342866,0.0-144.0,dietary_decision,True,0,,Neutral,388.0,decision,frozenyogart,0.0,38.0,Doritosranch,"{""health"":2,""taste"":0}","{""health"":-1,""taste"":1}",,,2
,455.0,,455.0,500.0,stim,single-stim-button,145,343834,0.0-145.0,dietary_decision,True,0,,Neutral,455.0,decision,raisins,0.0,39.0,Doritosranch,"{""health"":""NaN"",""taste"":0}","{""health"":-1,""taste"":1}",,,2
,748.0,,748.0,500.0,stim,single-stim-button,146,345089,0.0-146.0,dietary_decision,True,0,,Neutral,748.0,decision,wwmuffin,0.0,40.0,Doritosranch,"{""health"":-1,""taste"":-1}","{""health"":-1,""taste"":1}",,,2
,1198.0,,1198.0,500.0,stim,single-stim-button,147,346800,0.0-147.0,dietary_decision,True,0,,Neutral,1198.0,decision,uToberlorone,0.0,41.0,Doritosranch,"{""health"":0,""taste"":1}","{""health"":-1,""taste"":1}",,,2
,1432.0,,1432.0,500.0,stim,single-stim-button,148,348733,0.0-148.0,dietary_decision,True,0,,Neutral,1432.0,decision,strussel,0.0,42.0,Doritosranch,"{""health"":-1,""taste"":0}","{""health"":-1,""taste"":1}",,,2
,329.0,,329.0,500.0,stim,single-stim-button,149,349576,0.0-149.0,dietary_decision,True,0,,Neutral,329.0,decision,100Grand,0.0,43.0,Doritosranch,"{""health"":""NaN"",""taste"":1}","{""health"":-1,""taste"":1}",,,2
,266.0,,266.0,500.0,stim,single-stim-button,150,350353,0.0-150.0,dietary_decision,True,0,,Neutral,266.0,decision,KitKat,0.0,44.0,Doritosranch,"{""health"":-1,""taste"":0}","{""health"":-1,""taste"":1}",,,2
,248.0,,248.0,500.0,stim,single-stim-button,151,351114,0.0-151.0,dietary_decision,True,0,,Neutral,248.0,decision,specialKbar,0.0,45.0,Doritosranch,"{""health"":2,""taste"":2}","{""health"":-1,""taste"":1}",,,2
,717.0,,717.0,500.0,stim,single-stim-button,152,352336,0.0-152.0,dietary_decision,True,0,,Neutral,717.0,decision,keeblerfudgestripes,0.0,46.0,Doritosranch,"{""health"":-1,""taste"":1}","{""health"":-1,""taste"":1}",,,2
,779.0,,779.0,500.0,stim,single-stim-button,153,353623,0.0-153.0,dietary_decision,True,0,,Neutral,779.0,decision,slimfastV,0.0,47.0,Doritosranch,"{""health"":0,""taste"":0}","{""health"":-1,""taste"":1}",,,2
,822.0,,822.0,500.0,stim,single-stim-button,154,354955,0.0-154.0,dietary_decision,True,0,,Neutral,822.0,decision,banana,0.0,48.0,Doritosranch,"{""health"":2,""taste"":1}","{""health"":-1,""taste"":1}",,,2
,3431.0,,3431.0,500.0,stim,single-stim-button,106,366825,0.0-106.0,dietary_decision,True,0,,Strong_Yes,3431.0,decision,KitKat,2.0,0.0,Lindt,"{""health"":0,""taste"":2}","{""health"":0,""taste"":0}",,,3
,3193.0,,3193.0,500.0,stim,single-stim-button,107,370532,0.0-107.0,dietary_decision,True,0,,Neutral,3193.0,decision,cranberries,0.0,1.0,Lindt,"{""health"":""NaN"",""taste"":0}","{""health"":0,""taste"":0}",,,3
,2002.0,,2002.0,500.0,stim,single-stim-button,109,377554,0.0-109.0,dietary_decision,True,0,,Neutral,2002.0,decision,cherryicecream,0.0,3.0,Lindt,"{""health"":""NaN"",""taste"":0}","{""health"":0,""taste"":0}",,,3
,3001.0,,3001.0,500.0,stim,single-stim-button,110,381067,0.0-110.0,dietary_decision,True,0,,Neutral,3001.0,decision,uTwix,0.0,4.0,Lindt,"{""health"":-1,""taste"":1}","{""health"":0,""taste"":0}",,,3
,1365.0,,1365.0,500.0,stim,single-stim-button,111,382945,0.0-111.0,dietary_decision,True,0,,Neutral,1365.0,decision,Ghiradelli,0.0,5.0,Lindt,"{""health"":""NaN"",""taste"":0}","{""health"":0,""taste"":0}",,,3
,1706.0,,1706.0,500.0,stim,single-stim-button,112,385162,0.0-112.0,dietary_decision,True,0,,Yes,1706.0,decision,reddelicious,1.0,6.0,Lindt,"{""health"":2,""taste"":1}","{""health"":0,""taste"":0}",,,3
,2020.0,,2020.0,500.0,stim,single-stim-button,113,387694,0.0-113.0,dietary_decision,True,0,,No,2020.0,decision,keeblerfudgestripes,-1.0,7.0,Lindt,"{""health"":-1,""taste"":1}","{""health"":0,""taste"":0}",,,3
,1583.0,,1583.0,500.0,stim,single-stim-button,114,389778,0.0-114.0,dietary_decision,True,0,,No,1583.0,decision,ChipsAhoy,-1.0,8.0,Lindt,"{""health"":-1,""taste"":0}","{""health"":0,""taste"":0}",,,3
,1721.0,,1721.0,500.0,stim,single-stim-button,115,392011,0.0-115.0,dietary_decision,True,0,,Neutral,1721.0,decision,blueberryyogart,0.0,9.0,Lindt,"{""health"":""NaN"",""taste"":1}","{""health"":0,""taste"":0}",,,3
,1753.0,,1753.0,500.0,stim,single-stim-button,116,394273,0.0-116.0,dietary_decision,True,0,,No,1753.0,decision,HoHo,-1.0,10.0,Lindt,"{""health"":-1,""taste"":0}","{""health"":0,""taste"":0}",,,3
,3475.0,,3475.0,500.0,stim,single-stim-button,117,398261,0.0-117.0,dietary_decision,True,0,,No,3475.0,decision,raisins,-1.0,11.0,Lindt,"{""health"":1,""taste"":0}","{""health"":0,""taste"":0}",,,3
,1282.0,,1282.0,500.0,stim,single-stim-button,118,400045,0.0-118.0,dietary_decision,True,0,,Yes,1282.0,decision,laysclassic,1.0,12.0,Lindt,"{""health"":-1,""taste"":1}","{""health"":0,""taste"":0}",,,3
,1364.0,,1364.0,500.0,stim,single-stim-button,119,401917,0.0-119.0,dietary_decision,True,0,,No,1364.0,decision,MrsFields,-1.0,13.0,Lindt,"{""health"":-1,""taste"":-1}","{""health"":0,""taste"":0}",,,3
,1443.0,,1443.0,500.0,stim,single-stim-button,120,403866,0.0-120.0,dietary_decision,True,0,,Neutral,1443.0,decision,cellery,0.0,14.0,Lindt,"{""health"":1,""taste"":0}","{""health"":0,""taste"":0}",,,3
,1946.0,,1946.0,500.0,stim,single-stim-button,121,406323,0.0-121.0,dietary_decision,True,0,,Neutral,1946.0,decision,wwmuffin,0.0,15.0,Lindt,"{""health"":0,""taste"":0}","{""health"":0,""taste"":0}",,,3
,2185.0,,2185.0,500.0,stim,single-stim-button,122,409019,0.0-122.0,dietary_decision,True,0,,Yes,2185.0,decision,Doritosranch,1.0,16.0,Lindt,"{""health"":-1,""taste"":1}","{""health"":0,""taste"":0}",,,3
,2029.0,,2029.0,500.0,stim,single-stim-button,123,411552,0.0-123.0,dietary_decision,True,0,,Neutral,2029.0,decision,butterfinger,0.0,17.0,Lindt,"{""health"":""NaN"",""taste"":-1}","{""health"":0,""taste"":0}",,,3
,1252.0,,1252.0,500.0,stim,single-stim-button,124,413312,0.0-124.0,dietary_decision,True,0,,No,1252.0,decision,RiceKrispyTreat,-1.0,18.0,Lindt,"{""health"":""NaN"",""taste"":-1}","{""health"":0,""taste"":0}",,,3
,1446.0,,1446.0,500.0,stim,single-stim-button,125,415266,0.0-125.0,dietary_decision,True,0,,Strong_No,1446.0,decision,brocollincauliflower,-2.0,19.0,Lindt,"{""health"":""NaN"",""taste"":-2}","{""health"":0,""taste"":0}",,,3
,1390.0,,1390.0,500.0,stim,single-stim-button,126,417159,0.0-126.0,dietary_decision,True,0,,No,1390.0,decision,cookies,-1.0,20.0,Lindt,"{""health"":""NaN"",""taste"":0}","{""health"":0,""taste"":0}",,,3
,1107.0,,1107.0,500.0,stim,single-stim-button,127,418778,0.0-127.0,dietary_decision,True,0,,No,1107.0,decision,FamousAmos,-1.0,21.0,Lindt,"{""health"":1,""taste"":-1}","{""health"":0,""taste"":0}",,,3
,849.0,,849.0,500.0,stim,single-stim-button,128,420129,0.0-128.0,dietary_decision,True,0,,No,849.0,decision,slimfastC,-1.0,22.0,Lindt,"{""health"":0,""taste"":0}","{""health"":0,""taste"":0}",,,3
,1296.0,,1296.0,500.0,stim,single-stim-button,129,421937,0.0-129.0,dietary_decision,True,0,,Neutral,1296.0,decision,icecreamsandwich,0.0,23.0,Lindt,"{""health"":0,""taste"":0}","{""health"":0,""taste"":0}",,,3
,1424.0,,1424.0,500.0,stim,single-stim-button,130,423872,0.0-130.0,dietary_decision,True,0,,Neutral,1424.0,decision,mixedyogart,0.0,24.0,Lindt,"{""health"":""NaN"",""taste"":0}","{""health"":0,""taste"":0}",,,3
,1137.0,,1137.0,500.0,stim,single-stim-button,131,425520,0.0-131.0,dietary_decision,True,0,,Neutral,1137.0,decision,redgrapes,0.0,25.0,Lindt,"{""health"":2,""taste"":0}","{""health"":0,""taste"":0}",,,3
,1286.0,,1286.0,500.0,stim,single-stim-button,132,427320,0.0-132.0,dietary_decision,True,0,,Neutral,1286.0,decision,Reeses,0.0,26.0,Lindt,"{""health"":-1,""taste"":0}","{""health"":0,""taste"":0}",,,3
,1732.0,,1732.0,500.0,stim,single-stim-button,133,429559,0.0-133.0,dietary_decision,True,0,,No,1732.0,decision,ffraspsorbet,-1.0,27.0,Lindt,"{""health"":0,""taste"":0}","{""health"":0,""taste"":0}",,,3
,1779.0,,1779.0,500.0,stim,single-stim-button,134,431839,0.0-134.0,dietary_decision,True,0,,Strong_Yes,1779.0,decision,banana,2.0,28.0,Lindt,"{""health"":2,""taste"":2}","{""health"":0,""taste"":0}",,,3
,3021.0,,3021.0,500.0,stim,single-stim-button,135,435364,0.0-135.0,dietary_decision,True,0,,No,3021.0,decision,wheatcrisps,-1.0,29.0,Lindt,"{""health"":1,""taste"":0}","{""health"":0,""taste"":0}",,,3
,1462.0,,1462.0,500.0,stim,single-stim-button,136,437340,0.0-136.0,dietary_decision,True,0,,Neutral,1462.0,decision,orangejello,0.0,30.0,Lindt,"{""health"":-2,""taste"":0}","{""health"":0,""taste"":0}",,,3
,1436.0,,1436.0,500.0,stim,single-stim-button,137,439283,0.0-137.0,dietary_decision,True,0,,Yes,1436.0,decision,whitegrapes,1.0,31.0,Lindt,"{""health"":1,""taste"":1}","{""health"":0,""taste"":0}",,,3
,936.0,,936.0,500.0,stim,single-stim-button,138,440732,0.0-138.0,dietary_decision,True,0,,Yes,936.0,decision,grannysmith,1.0,32.0,Lindt,"{""health"":2,""taste"":1}","{""health"":0,""taste"":0}",,,3
,1673.0,,1673.0,500.0,stim,single-stim-button,139,442914,0.0-139.0,dietary_decision,True,0,,No,1673.0,decision,100Grand,-1.0,33.0,Lindt,"{""health"":-1,""taste"":0}","{""health"":0,""taste"":0}",,,3
,723.0,,723.0,500.0,stim,single-stim-button,140,444146,0.0-140.0,dietary_decision,True,0,,No,723.0,decision,sbdietbar,-1.0,34.0,Lindt,"{""health"":0,""taste"":-1}","{""health"":0,""taste"":0}",,,3
,2088.0,,2088.0,500.0,stim,single-stim-button,141,446749,0.0-141.0,dietary_decision,True,0,,Neutral,2088.0,decision,wwbrownie,0.0,35.0,Lindt,"{""health"":0,""taste"":1}","{""health"":0,""taste"":0}",,,3
,1149.0,,1149.0,500.0,stim,single-stim-button,142,448410,0.0-142.0,dietary_decision,True,0,,No,1149.0,decision,sbcrackers,-1.0,36.0,Lindt,"{""health"":0,""taste"":-1}","{""health"":0,""taste"":0}",,,3
,1971.0,,1971.0,500.0,stim,single-stim-button,143,450888,0.0-143.0,dietary_decision,True,0,,No,1971.0,decision,carrots,-1.0,37.0,Lindt,"{""health"":1,""taste"":0}","{""health"":0,""taste"":0}",,,3
,1798.0,,1798.0,500.0,stim,single-stim-button,144,453196,0.0-144.0,dietary_decision,True,0,,Yes,1798.0,decision,Oreos,1.0,38.0,Lindt,"{""health"":-1,""taste"":2}","{""health"":0,""taste"":0}",,,3
,1194.0,,1194.0,500.0,stim,single-stim-button,145,454898,0.0-145.0,dietary_decision,True,0,,No,1194.0,decision,keeblerrainbow,-1.0,39.0,Lindt,"{""health"":0,""taste"":0}","{""health"":0,""taste"":0}",,,3
,1947.0,,1947.0,500.0,stim,single-stim-button,146,457353,0.0-146.0,dietary_decision,True,0,,Strong_No,1947.0,decision,specialKbar,-2.0,40.0,Lindt,"{""health"":0,""taste"":0}","{""health"":0,""taste"":0}",,,3
,1357.0,,1357.0,500.0,stim,single-stim-button,147,459217,0.0-147.0,dietary_decision,True,0,,Strong_No,1357.0,decision,slimfastV,-2.0,41.0,Lindt,"{""health"":0,""taste"":0}","{""health"":0,""taste"":0}",,,3
,1534.0,,1534.0,500.0,stim,single-stim-button,148,461258,0.0-148.0,dietary_decision,True,0,,Strong_Yes,1534.0,decision,cookiencream,2.0,42.0,Lindt,"{""health"":0,""taste"":2}","{""health"":0,""taste"":0}",,,3
,1305.0,,1305.0,500.0,stim,single-stim-button,149,463066,0.0-149.0,dietary_decision,True,0,,No,1305.0,decision,frozenyogart,-1.0,43.0,Lindt,"{""health"":-1,""taste"":0}","{""health"":0,""taste"":0}",,,3
,2942.0,,2942.0,500.0,stim,single-stim-button,150,466514,0.0-150.0,dietary_decision,True,0,,No,2942.0,decision,ruffles,-1.0,44.0,Lindt,"{""health"":0,""taste"":0}","{""health"":0,""taste"":0}",,,3
,1227.0,,1227.0,500.0,stim,single-stim-button,151,468252,0.0-151.0,dietary_decision,True,0,,Strong_No,1227.0,decision,FlamingCheetos,-2.0,45.0,Lindt,"{""health"":-2,""taste"":-1}","{""health"":0,""taste"":0}",,,3
,1993.0,,1993.0,500.0,stim,single-stim-button,152,470757,0.0-152.0,dietary_decision,True,0,,No,1993.0,decision,orange,-1.0,46.0,Lindt,"{""health"":2,""taste"":0}","{""health"":0,""taste"":0}",,,3
,860.0,,860.0,500.0,stim,single-stim-button,153,472122,0.0-153.0,dietary_decision,True,0,,No,860.0,decision,strussel,-1.0,47.0,Lindt,"{""health"":0,""taste"":-1}","{""health"":0,""taste"":0}",,,3
,1207.0,,1207.0,500.0,stim,single-stim-button,154,473831,0.0-154.0,dietary_decision,True,0,,Yes,1207.0,decision,uToberlorone,1.0,48.0,Lindt,"{""health"":-1,""taste"":1}","{""health"":0,""taste"":0}",,,3
,3516.0,,3516.0,500.0,stim,single-stim-button,106,279296,0.0-106.0,dietary_decision,True,0,,Yes,3516.0,decision,wwbrownie,1.0,0.0,icecreamsandwich,"{""health"":-1,""taste"":-1}","{""health"":0,""taste"":-1}",,,4
,2514.0,,2514.0,500.0,stim,single-stim-button,107,282322,0.0-107.0,dietary_decision,True,0,,No,2514.0,decision,cranberries,-1.0,1.0,icecreamsandwich,"{""health"":0,""taste"":0}","{""health"":0,""taste"":-1}",,,4
,1657.0,,1657.0,500.0,stim,single-stim-button,108,284492,0.0-108.0,dietary_decision,True,0,,Yes,1657.0,decision,RiceKrispyTreat,1.0,2.0,icecreamsandwich,"{""health"":0,""taste"":0}","{""health"":0,""taste"":-1}",,,4
,1420.0,,1420.0,500.0,stim,single-stim-button,109,286428,0.0-109.0,dietary_decision,True,0,,Neutral,1420.0,decision,uToberlorone,0.0,3.0,icecreamsandwich,"{""health"":0,""taste"":0}","{""health"":0,""taste"":-1}",,,4
,1108.0,,1108.0,500.0,stim,single-stim-button,110,288049,0.0-110.0,dietary_decision,True,0,,No,1108.0,decision,slimfastC,-1.0,4.0,icecreamsandwich,"{""health"":0,""taste"":-1}","{""health"":0,""taste"":-1}",,,4
,1095.0,,1095.0,500.0,stim,single-stim-button,111,289646,0.0-111.0,dietary_decision,True,0,,No,1095.0,decision,Oreos,-1.0,5.0,icecreamsandwich,"{""health"":-1,""taste"":""NaN""}","{""health"":0,""taste"":-1}",,,4
,751.0,,751.0,500.0,stim,single-stim-button,112,290910,0.0-112.0,dietary_decision,True,0,,No,751.0,decision,blueberryyogart,-1.0,6.0,icecreamsandwich,"{""health"":0,""taste"":-1}","{""health"":0,""taste"":-1}",,,4
,1347.0,,1347.0,500.0,stim,single-stim-button,113,292766,0.0-113.0,dietary_decision,True,0,,No,1347.0,decision,cookies,-1.0,7.0,icecreamsandwich,"{""health"":0,""taste"":-1}","{""health"":0,""taste"":-1}",,,4
,874.0,,874.0,500.0,stim,single-stim-button,114,294153,0.0-114.0,dietary_decision,True,0,,No,874.0,decision,sbdietbar,-1.0,8.0,icecreamsandwich,"{""health"":0,""taste"":-1}","{""health"":0,""taste"":-1}",,,4
,1602.0,,1602.0,500.0,stim,single-stim-button,115,296267,0.0-115.0,dietary_decision,True,0,,Yes,1602.0,decision,reddelicious,1.0,9.0,icecreamsandwich,"{""health"":1,""taste"":2}","{""health"":0,""taste"":-1}",,,4
,2290.0,,2290.0,500.0,stim,single-stim-button,116,299070,0.0-116.0,dietary_decision,True,0,,Yes,2290.0,decision,wheatcrisps,1.0,10.0,icecreamsandwich,"{""health"":-1,""taste"":-1}","{""health"":0,""taste"":-1}",,,4
,1014.0,,1014.0,500.0,stim,single-stim-button,117,300585,0.0-117.0,dietary_decision,True,0,,Neutral,1014.0,decision,carrots,0.0,11.0,icecreamsandwich,"{""health"":0,""taste"":-1}","{""health"":0,""taste"":-1}",,,4
,1875.0,,1875.0,500.0,stim,single-stim-button,118,302972,0.0-118.0,dietary_decision,True,0,,Yes,1875.0,decision,frozenyogart,1.0,12.0,icecreamsandwich,"{""health"":-1,""taste"":-1}","{""health"":0,""taste"":-1}",,,4
,2407.0,,2407.0,500.0,stim,single-stim-button,119,305888,0.0-119.0,dietary_decision,True,0,,Yes,2407.0,decision,wwmuffin,1.0,13.0,icecreamsandwich,"{""health"":0,""taste"":0}","{""health"":0,""taste"":-1}",,,4
,596.0,,596.0,500.0,stim,single-stim-button,120,306994,0.0-120.0,dietary_decision,True,0,,Yes,596.0,decision,cellery,1.0,14.0,icecreamsandwich,"{""health"":-1,""taste"":-1}","{""health"":0,""taste"":-1}",,,4
,349.0,,349.0,500.0,stim,single-stim-button,121,307855,0.0-121.0,dietary_decision,True,0,,Yes,349.0,decision,uTwix,1.0,15.0,icecreamsandwich,"{""health"":0,""taste"":0}","{""health"":0,""taste"":-1}",,,4
,409.0,,409.0,500.0,stim,single-stim-button,122,308772,0.0-122.0,dietary_decision,True,0,,Yes,409.0,decision,grannysmith,1.0,16.0,icecreamsandwich,"{""health"":0,""taste"":1}","{""health"":0,""taste"":-1}",,,4
,387.0,,387.0,500.0,stim,single-stim-button,123,309673,0.0-123.0,dietary_decision,True,0,,Yes,387.0,decision,cherryicecream,1.0,17.0,icecreamsandwich,"{""health"":0,""taste"":0}","{""health"":0,""taste"":-1}",,,4
,455.0,,455.0,500.0,stim,single-stim-button,124,310638,0.0-124.0,dietary_decision,True,0,,Yes,455.0,decision,Lindt,1.0,18.0,icecreamsandwich,"{""health"":0,""taste"":1}","{""health"":0,""taste"":-1}",,,4
,470.0,,470.0,500.0,stim,single-stim-button,125,311622,0.0-125.0,dietary_decision,True,0,,Yes,470.0,decision,banana,1.0,19.0,icecreamsandwich,"{""health"":0,""taste"":-1}","{""health"":0,""taste"":-1}",,,4
,520.0,,520.0,500.0,stim,single-stim-button,126,312656,0.0-126.0,dietary_decision,True,0,,Yes,520.0,decision,whitegrapes,1.0,20.0,icecreamsandwich,"{""health"":1,""taste"":-1}","{""health"":0,""taste"":-1}",,,4
,436.0,,436.0,500.0,stim,single-stim-button,127,313599,0.0-127.0,dietary_decision,True,0,,Yes,436.0,decision,slimfastV,1.0,21.0,icecreamsandwich,"{""health"":0,""taste"":-1}","{""health"":0,""taste"":-1}",,,4
,950.0,,950.0,500.0,stim,single-stim-button,128,315061,0.0-128.0,dietary_decision,True,0,,Yes,950.0,decision,brocollincauliflower,1.0,22.0,icecreamsandwich,"{""health"":0,""taste"":0}","{""health"":0,""taste"":-1}",,,4
,642.0,,642.0,500.0,stim,single-stim-button,129,316217,0.0-129.0,dietary_decision,True,0,,Yes,642.0,decision,ffraspsorbet,1.0,23.0,icecreamsandwich,"{""health"":0,""taste"":0}","{""health"":0,""taste"":-1}",,,4
,891.0,,891.0,500.0,stim,single-stim-button,130,317621,0.0-130.0,dietary_decision,True,0,,Yes,891.0,decision,MrsFields,1.0,24.0,icecreamsandwich,"{""health"":0,""taste"":-1}","{""health"":0,""taste"":-1}",,,4
,1097.0,,1097.0,500.0,stim,single-stim-button,131,319230,0.0-131.0,dietary_decision,True,0,,Yes,1097.0,decision,Reeses,1.0,25.0,icecreamsandwich,"{""health"":0,""taste"":-1}","{""health"":0,""taste"":-1}",,,4
,565.0,,565.0,500.0,stim,single-stim-button,132,320310,0.0-132.0,dietary_decision,True,0,,Yes,565.0,decision,sbcrackers,1.0,26.0,icecreamsandwich,"{""health"":-1,""taste"":0}","{""health"":0,""taste"":-1}",,,4
,391.0,,391.0,500.0,stim,single-stim-button,133,321214,0.0-133.0,dietary_decision,True,0,,Yes,391.0,decision,laysclassic,1.0,27.0,icecreamsandwich,"{""health"":-1,""taste"":""NaN""}","{""health"":0,""taste"":-1}",,,4
,409.0,,409.0,500.0,stim,single-stim-button,134,322124,0.0-134.0,dietary_decision,True,0,,Yes,409.0,decision,FamousAmos,1.0,28.0,icecreamsandwich,"{""health"":0,""taste"":0}","{""health"":0,""taste"":-1}",,,4
,377.0,,377.0,500.0,stim,single-stim-button,135,323003,0.0-135.0,dietary_decision,True,0,,Yes,377.0,decision,keeblerfudgestripes,1.0,29.0,icecreamsandwich,"{""health"":1,""taste"":0}","{""health"":0,""taste"":-1}",,,4
,350.0,,350.0,500.0,stim,single-stim-button,136,323870,0.0-136.0,dietary_decision,True,0,,Yes,350.0,decision,Doritosranch,1.0,30.0,icecreamsandwich,"{""health"":-1,""taste"":-1}","{""health"":0,""taste"":-1}",,,4
,362.0,,362.0,500.0,stim,single-stim-button,137,324734,0.0-137.0,dietary_decision,True,0,,Yes,362.0,decision,orange,1.0,31.0,icecreamsandwich,"{""health"":0,""taste"":-1}","{""health"":0,""taste"":-1}",,,4
,345.0,,345.0,500.0,stim,single-stim-button,138,325589,0.0-138.0,dietary_decision,True,0,,Yes,345.0,decision,specialKbar,1.0,32.0,icecreamsandwich,"{""health"":0,""taste"":-1}","{""health"":0,""taste"":-1}",,,4
,398.0,,398.0,500.0,stim,single-stim-button,139,326489,0.0-139.0,dietary_decision,True,0,,Yes,398.0,decision,KitKat,1.0,33.0,icecreamsandwich,"{""health"":-1,""taste"":0}","{""health"":0,""taste"":-1}",,,4
,361.0,,361.0,500.0,stim,single-stim-button,140,327361,0.0-140.0,dietary_decision,True,0,,Yes,361.0,decision,ChipsAhoy,1.0,34.0,icecreamsandwich,"{""health"":-1,""taste"":-1}","{""health"":0,""taste"":-1}",,,4
,318.0,,318.0,500.0,stim,single-stim-button,141,328191,0.0-141.0,dietary_decision,True,0,,Yes,318.0,decision,keeblerrainbow,1.0,35.0,icecreamsandwich,"{""health"":0,""taste"":-1}","{""health"":0,""taste"":-1}",,,4
,320.0,,320.0,500.0,stim,single-stim-button,142,329024,0.0-142.0,dietary_decision,True,0,,Yes,320.0,decision,100Grand,1.0,36.0,icecreamsandwich,"{""health"":1,""taste"":-1}","{""health"":0,""taste"":-1}",,,4
,348.0,,348.0,500.0,stim,single-stim-button,143,329872,0.0-143.0,dietary_decision,True,0,,Yes,348.0,decision,strawberries,1.0,37.0,icecreamsandwich,"{""health"":1,""taste"":-1}","{""health"":0,""taste"":-1}",,,4
,348.0,,348.0,500.0,stim,single-stim-button,144,330726,0.0-144.0,dietary_decision,True,0,,Yes,348.0,decision,butterfinger,1.0,38.0,icecreamsandwich,"{""health"":0,""taste"":-1}","{""health"":0,""taste"":-1}",,,4
,287.0,,287.0,500.0,stim,single-stim-button,145,331529,0.0-145.0,dietary_decision,True,0,,Yes,287.0,decision,orangejello,1.0,39.0,icecreamsandwich,"{""health"":-1,""taste"":-1}","{""health"":0,""taste"":-1}",,,4
,288.0,,288.0,500.0,stim,single-stim-button,146,332333,0.0-146.0,dietary_decision,True,0,,Yes,288.0,decision,cookiencream,1.0,40.0,icecreamsandwich,"{""health"":-1,""taste"":0}","{""health"":0,""taste"":-1}",,,4
,349.0,,349.0,500.0,stim,single-stim-button,147,333197,0.0-147.0,dietary_decision,True,0,,Yes,349.0,decision,Ghiradelli,1.0,41.0,icecreamsandwich,"{""health"":""NaN"",""taste"":-1}","{""health"":0,""taste"":-1}",,,4
,361.0,,361.0,500.0,stim,single-stim-button,148,334070,0.0-148.0,dietary_decision,True,0,,Yes,361.0,decision,redgrapes,1.0,42.0,icecreamsandwich,"{""health"":-1,""taste"":1}","{""health"":0,""taste"":-1}",,,4
,349.0,,349.0,500.0,stim,single-stim-button,149,334920,0.0-149.0,dietary_decision,True,0,,Yes,349.0,decision,HoHo,1.0,43.0,icecreamsandwich,"{""health"":-1,""taste"":-1}","{""health"":0,""taste"":-1}",,,4
,350.0,,350.0,500.0,stim,single-stim-button,150,335781,0.0-150.0,dietary_decision,True,0,,Yes,350.0,decision,ruffles,1.0,44.0,icecreamsandwich,"{""health"":0,""taste"":-1}","{""health"":0,""taste"":-1}",,,4
,395.0,,395.0,500.0,stim,single-stim-button,151,336676,0.0-151.0,dietary_decision,True,0,,Yes,395.0,decision,mixedyogart,1.0,45.0,icecreamsandwich,"{""health"":1,""taste"":-1}","{""health"":0,""taste"":-1}",,,4
,396.0,,396.0,500.0,stim,single-stim-button,152,337583,0.0-152.0,dietary_decision,True,0,,Yes,396.0,decision,raisins,1.0,46.0,icecreamsandwich,"{""health"":0,""taste"":-1}","{""health"":0,""taste"":-1}",,,4
,269.0,,269.0,500.0,stim,single-stim-button,153,338365,0.0-153.0,dietary_decision,True,0,,Yes,269.0,decision,strussel,1.0,47.0,icecreamsandwich,"{""health"":-1,""taste"":-1}","{""health"":0,""taste"":-1}",,,4
,304.0,,304.0,500.0,stim,single-stim-button,154,339180,0.0-154.0,dietary_decision,True,0,,Yes,304.0,decision,FlamingCheetos,1.0,48.0,icecreamsandwich,"{""health"":0,""taste"":-1}","{""health"":0,""taste"":-1}",,,4
,2913.0,,2913.0,500.0,stim,single-stim-button,106,313972,0.0-106.0,dietary_decision,True,0,,Yes,2913.0,decision,reddelicious,1.0,0.0,orangejello,"{""health"":1,""taste"":0}","{""health"":-1,""taste"":1}",,,5
,2513.0,,2513.0,500.0,stim,single-stim-button,107,316995,0.0-107.0,dietary_decision,True,0,,Yes,2513.0,decision,Lindt,1.0,1.0,orangejello,"{""health"":1,""taste"":1}","{""health"":-1,""taste"":1}",,,5
,1057.0,,1057.0,500.0,stim,single-stim-button,108,318563,0.0-108.0,dietary_decision,True,0,,Yes,1057.0,decision,Doritosranch,1.0,2.0,orangejello,"{""health"":0,""taste"":2}","{""health"":-1,""taste"":1}",,,5
,806.0,,806.0,500.0,stim,single-stim-button,109,319881,0.0-109.0,dietary_decision,True,0,,Yes,806.0,decision,icecreamsandwich,1.0,3.0,orangejello,"{""health"":-2,""taste"":2}","{""health"":-1,""taste"":1}",,,5
,1252.0,,1252.0,500.0,stim,single-stim-button,110,321636,0.0-110.0,dietary_decision,True,0,,Neutral,1252.0,decision,banana,0.0,4.0,orangejello,"{""health"":2,""taste"":0}","{""health"":-1,""taste"":1}",,,5
,3343.0,,3343.0,500.0,stim,single-stim-button,111,325494,0.0-111.0,dietary_decision,True,0,,Yes,3343.0,decision,slimfastC,1.0,5.0,orangejello,"{""health"":0,""taste"":1}","{""health"":-1,""taste"":1}",,,5
,1934.0,,1934.0,500.0,stim,single-stim-button,112,327938,0.0-112.0,dietary_decision,True,0,,No,1934.0,decision,laysclassic,-1.0,6.0,orangejello,"{""health"":-2,""taste"":2}","{""health"":-1,""taste"":1}",,,5
,1463.0,,1463.0,500.0,stim,single-stim-button,113,329904,0.0-113.0,dietary_decision,True,0,,No,1463.0,decision,grannysmith,-1.0,7.0,orangejello,"{""health"":2,""taste"":0}","{""health"":-1,""taste"":1}",,,5
,1959.0,,1959.0,500.0,stim,single-stim-button,114,332365,0.0-114.0,dietary_decision,True,0,,Strong_Yes,1959.0,decision,100Grand,2.0,8.0,orangejello,"{""health"":-1,""taste"":2}","{""health"":-1,""taste"":1}",,,5
,1452.0,,1452.0,500.0,stim,single-stim-button,115,334330,0.0-115.0,dietary_decision,True,0,,No,1452.0,decision,brocollincauliflower,-1.0,9.0,orangejello,"{""health"":0,""taste"":-1}","{""health"":-1,""taste"":1}",,,5
,1200.0,,1200.0,500.0,stim,single-stim-button,116,336041,0.0-116.0,dietary_decision,True,0,,Yes,1200.0,decision,MrsFields,1.0,10.0,orangejello,"{""health"":-1,""taste"":2}","{""health"":-1,""taste"":1}",,,5
,1683.0,,1683.0,500.0,stim,single-stim-button,117,338240,0.0-117.0,dietary_decision,True,0,,Neutral,1683.0,decision,whitegrapes,0.0,11.0,orangejello,"{""health"":1,""taste"":0}","{""health"":-1,""taste"":1}",,,5
,1447.0,,1447.0,500.0,stim,single-stim-button,118,340195,0.0-118.0,dietary_decision,True,0,,Strong_Yes,1447.0,decision,cookiencream,2.0,12.0,orangejello,"{""health"":-1,""taste"":2}","{""health"":-1,""taste"":1}",,,5
,1349.0,,1349.0,500.0,stim,single-stim-button,119,342058,0.0-119.0,dietary_decision,True,0,,Yes,1349.0,decision,strussel,1.0,13.0,orangejello,"{""health"":-1,""taste"":1}","{""health"":-1,""taste"":1}",,,5
,1934.0,,1934.0,500.0,stim,single-stim-button,120,344499,0.0-120.0,dietary_decision,True,0,,Neutral,1934.0,decision,orange,0.0,14.0,orangejello,"{""health"":2,""taste"":0}","{""health"":-1,""taste"":1}",,,5
,1431.0,,1431.0,500.0,stim,single-stim-button,121,346444,0.0-121.0,dietary_decision,True,0,,Strong_Yes,1431.0,decision,KitKat,2.0,15.0,orangejello,"{""health"":-1,""taste"":1}","{""health"":-1,""taste"":1}",,,5
,1412.0,,1412.0,500.0,stim,single-stim-button,122,348364,0.0-122.0,dietary_decision,True,0,,Neutral,1412.0,decision,ffraspsorbet,0.0,16.0,orangejello,"{""health"":1,""taste"":0}","{""health"":-1,""taste"":1}",,,5
,1617.0,,1617.0,500.0,stim,single-stim-button,123,350495,0.0-123.0,dietary_decision,True,0,,Strong_Yes,1617.0,decision,Ghiradelli,2.0,17.0,orangejello,"{""health"":0,""taste"":1}","{""health"":-1,""taste"":1}",,,5
,1636.0,,1636.0,500.0,stim,single-stim-button,124,352646,0.0-124.0,dietary_decision,True,0,,No,1636.0,decision,RiceKrispyTreat,-1.0,18.0,orangejello,"{""health"":-1,""taste"":0}","{""health"":-1,""taste"":1}",,,5
,1574.0,,1574.0,500.0,stim,single-stim-button,125,354734,0.0-125.0,dietary_decision,True,0,,No,1574.0,decision,wheatcrisps,-1.0,19.0,orangejello,"{""health"":""NaN"",""taste"":0}","{""health"":-1,""taste"":1}",,,5
,1546.0,,1546.0,500.0,stim,single-stim-button,126,356787,0.0-126.0,dietary_decision,True,0,,Yes,1546.0,decision,Reeses,1.0,20.0,orangejello,"{""health"":""NaN"",""taste"":1}","{""health"":-1,""taste"":1}",,,5
,889.0,,889.0,500.0,stim,single-stim-button,127,358189,0.0-127.0,dietary_decision,True,0,,Yes,889.0,decision,Oreos,1.0,21.0,orangejello,"{""health"":-1,""taste"":1}","{""health"":-1,""taste"":1}",,,5
,1297.0,,1297.0,500.0,stim,single-stim-button,128,359998,0.0-128.0,dietary_decision,True,0,,Neutral,1297.0,decision,cellery,0.0,22.0,orangejello,"{""health"":0,""taste"":0}","{""health"":-1,""taste"":1}",,,5
,1264.0,,1264.0,500.0,stim,single-stim-button,129,361774,0.0-129.0,dietary_decision,True,0,,Strong_Yes,1264.0,decision,butterfinger,2.0,23.0,orangejello,"{""health"":-1,""taste"":1}","{""health"":-1,""taste"":1}",,,5
,1582.0,,1582.0,500.0,stim,single-stim-button,130,363869,0.0-130.0,dietary_decision,True,0,,Strong_Yes,1582.0,decision,wwbrownie,2.0,24.0,orangejello,"{""health"":-1,""taste"":2}","{""health"":-1,""taste"":1}",,,5
,980.0,,980.0,500.0,stim,single-stim-button,131,365355,0.0-131.0,dietary_decision,True,0,,Strong_Yes,980.0,decision,uTwix,2.0,25.0,orangejello,"{""health"":-2,""taste"":1}","{""health"":-1,""taste"":1}",,,5
,1605.0,,1605.0,500.0,stim,single-stim-button,132,367475,0.0-132.0,dietary_decision,True,0,,No,1605.0,decision,cookies,-1.0,26.0,orangejello,"{""health"":-2,""taste"":0}","{""health"":-1,""taste"":1}",,,5
,1643.0,,1643.0,500.0,stim,single-stim-button,133,369622,0.0-133.0,dietary_decision,True,0,,No,1643.0,decision,uToberlorone,-1.0,27.0,orangejello,"{""health"":-1,""taste"":1}","{""health"":-1,""taste"":1}",,,5
,1268.0,,1268.0,500.0,stim,single-stim-button,134,371404,0.0-134.0,dietary_decision,True,0,,No,1268.0,decision,specialKbar,-1.0,28.0,orangejello,"{""health"":-2,""taste"":0}","{""health"":-1,""taste"":1}",,,5
,2068.0,,2068.0,500.0,stim,single-stim-button,135,373977,0.0-135.0,dietary_decision,True,0,,Neutral,2068.0,decision,frozenyogart,0.0,29.0,orangejello,"{""health"":1,""taste"":1}","{""health"":-1,""taste"":1}",,,5
,1845.0,,1845.0,500.0,stim,single-stim-button,136,376334,0.0-136.0,dietary_decision,True,0,,Yes,1845.0,decision,ChipsAhoy,1.0,30.0,orangejello,"{""health"":-1,""taste"":0}","{""health"":-1,""taste"":1}",,,5
,1401.0,,1401.0,500.0,stim,single-stim-button,137,378240,0.0-137.0,dietary_decision,True,0,,Yes,1401.0,decision,wwmuffin,1.0,31.0,orangejello,"{""health"":0,""taste"":1}","{""health"":-1,""taste"":1}",,,5
,1729.0,,1729.0,500.0,stim,single-stim-button,138,380484,0.0-138.0,dietary_decision,True,0,,Strong_No,1729.0,decision,cranberries,-2.0,32.0,orangejello,"{""health"":2,""taste"":-1}","{""health"":-1,""taste"":1}",,,5
,1773.0,,1773.0,500.0,stim,single-stim-button,139,382760,0.0-139.0,dietary_decision,True,0,,No,1773.0,decision,strawberries,-1.0,33.0,orangejello,"{""health"":2,""taste"":1}","{""health"":-1,""taste"":1}",,,5
,1478.0,,1478.0,500.0,stim,single-stim-button,140,384750,0.0-140.0,dietary_decision,True,0,,Yes,1478.0,decision,FamousAmos,1.0,34.0,orangejello,"{""health"":-1,""taste"":1}","{""health"":-1,""taste"":1}",,,5
,1305.0,,1305.0,500.0,stim,single-stim-button,141,386570,0.0-141.0,dietary_decision,True,0,,Strong_Yes,1305.0,decision,HoHo,2.0,35.0,orangejello,"{""health"":-1,""taste"":0}","{""health"":-1,""taste"":1}",,,5
,1341.0,,1341.0,500.0,stim,single-stim-button,142,388427,0.0-142.0,dietary_decision,True,0,,Neutral,1341.0,decision,blueberryyogart,0.0,36.0,orangejello,"{""health"":0,""taste"":1}","{""health"":-1,""taste"":1}",,,5
,1539.0,,1539.0,500.0,stim,single-stim-button,143,390471,0.0-143.0,dietary_decision,True,0,,No,1539.0,decision,sbdietbar,-1.0,37.0,orangejello,"{""health"":-1,""taste"":-1}","{""health"":-1,""taste"":1}",,,5
,1588.0,,1588.0,500.0,stim,single-stim-button,144,392572,0.0-144.0,dietary_decision,True,0,,No,1588.0,decision,mixedyogart,-1.0,38.0,orangejello,"{""health"":1,""taste"":1}","{""health"":-1,""taste"":1}",,,5
,1295.0,,1295.0,500.0,stim,single-stim-button,145,394378,0.0-145.0,dietary_decision,True,0,,No,1295.0,decision,redgrapes,-1.0,39.0,orangejello,"{""health"":1,""taste"":0}","{""health"":-1,""taste"":1}",,,5
,1804.0,,1804.0,500.0,stim,single-stim-button,146,396694,0.0-146.0,dietary_decision,True,0,,No,1804.0,decision,carrots,-1.0,40.0,orangejello,"{""health"":0,""taste"":0}","{""health"":-1,""taste"":1}",,,5
,1617.0,,1617.0,500.0,stim,single-stim-button,147,398825,0.0-147.0,dietary_decision,True,0,,Neutral,1617.0,decision,keeblerfudgestripes,0.0,41.0,orangejello,"{""health"":-1,""taste"":0}","{""health"":-1,""taste"":1}",,,5
,1968.0,,1968.0,500.0,stim,single-stim-button,148,401298,0.0-148.0,dietary_decision,True,0,,No,1968.0,decision,ruffles,-1.0,42.0,orangejello,"{""health"":-1,""taste"":0}","{""health"":-1,""taste"":1}",,,5
,2848.0,,2848.0,500.0,stim,single-stim-button,149,404656,0.0-149.0,dietary_decision,True,0,,Yes,2848.0,decision,cherryicecream,1.0,43.0,orangejello,"{""health"":-1,""taste"":0}","{""health"":-1,""taste"":1}",,,5
,1815.0,,1815.0,500.0,stim,single-stim-button,150,406985,0.0-150.0,dietary_decision,True,0,,Neutral,1815.0,decision,FlamingCheetos,0.0,44.0,orangejello,"{""health"":-1,""taste"":1}","{""health"":-1,""taste"":1}",,,5
,1920.0,,1920.0,500.0,stim,single-stim-button,151,409412,0.0-151.0,dietary_decision,True,0,,Strong_No,1920.0,decision,raisins,-2.0,45.0,orangejello,"{""health"":2,""taste"":-1}","{""health"":-1,""taste"":1}",,,5
,1322.0,,1322.0,500.0,stim,single-stim-button,152,411246,0.0-152.0,dietary_decision,True,0,,No,1322.0,decision,slimfastV,-1.0,46.0,orangejello,"{""health"":-2,""taste"":0}","{""health"":-1,""taste"":1}",,,5
,1311.0,,1311.0,500.0,stim,single-stim-button,153,413072,0.0-153.0,dietary_decision,True,0,,No,1311.0,decision,keeblerrainbow,-1.0,47.0,orangejello,"{""health"":-1,""taste"":2}","{""health"":-1,""taste"":1}",,,5
,1206.0,,1206.0,500.0,stim,single-stim-button,154,414790,0.0-154.0,dietary_decision,True,0,,No,1206.0,decision,sbcrackers,-1.0,48.0,orangejello,"{""health"":0,""taste"":-1}","{""health"":-1,""taste"":1}",,,5
,1066.0,,1066.0,500.0,stim,single-stim-button,106,178933,0.0-105.0,dietary_decision,True,0,,Strong_No,1066.0,decision,brocollincauliflower,-2.0,0.0,whitegrapes,"{""taste"":1,""health"":0}","{""taste"":-1,""health"":0}",,,6
,380.0,,380.0,500.0,stim,single-stim-button,107,179814,0.0-106.0,dietary_decision,True,0,,No,380.0,decision,blueberryyogart,-1.0,1.0,whitegrapes,"{""taste"":0,""health"":1}","{""taste"":-1,""health"":0}",,,6
,508.0,,508.0,500.0,stim,single-stim-button,108,180823,0.0-107.0,dietary_decision,True,0,,Neutral,508.0,decision,slimfastV,0.0,2.0,whitegrapes,"{""taste"":-2,""health"":2}","{""taste"":-1,""health"":0}",,,6
,942.0,,942.0,500.0,stim,single-stim-button,109,182267,0.0-108.0,dietary_decision,True,0,,Yes,942.0,decision,MrsFields,1.0,3.0,whitegrapes,"{""taste"":""NaN"",""health"":-2}","{""taste"":-1,""health"":0}",,,6
,342.0,,342.0,500.0,stim,single-stim-button,110,183111,0.0-109.0,dietary_decision,True,0,,Strong_Yes,342.0,decision,uToberlorone,2.0,4.0,whitegrapes,"{""taste"":-2,""health"":-2}","{""taste"":-1,""health"":0}",,,6
,584.0,,584.0,500.0,stim,single-stim-button,111,184197,0.0-110.0,dietary_decision,True,0,,Yes,584.0,decision,FamousAmos,1.0,5.0,whitegrapes,"{""taste"":0,""health"":2}","{""taste"":-1,""health"":0}",,,6
,252.0,,252.0,500.0,stim,single-stim-button,112,184951,0.0-111.0,dietary_decision,True,0,,Neutral,252.0,decision,orangejello,0.0,6.0,whitegrapes,"{""taste"":-2,""health"":1}","{""taste"":-1,""health"":0}",,,6
,543.0,,543.0,500.0,stim,single-stim-button,113,185995,0.0-112.0,dietary_decision,True,0,,No,543.0,decision,Doritosranch,-1.0,7.0,whitegrapes,"{""taste"":1,""health"":2}","{""taste"":-1,""health"":0}",,,6
,494.0,,494.0,500.0,stim,single-stim-button,114,186989,0.0-113.0,dietary_decision,True,0,,Strong_No,494.0,decision,Ghiradelli,-2.0,8.0,whitegrapes,"{""taste"":1,""health"":-1}","{""taste"":-1,""health"":0}",,,6
,1581.0,,1581.0,500.0,stim,single-stim-button,115,189072,0.0-114.0,dietary_decision,True,0,,Strong_Yes,1581.0,decision,reddelicious,2.0,9.0,whitegrapes,"{""taste"":2,""health"":-1}","{""taste"":-1,""health"":0}",,,6
,1022.0,,1022.0,500.0,stim,single-stim-button,116,190596,0.0-115.0,dietary_decision,True,0,,Strong_No,1022.0,decision,mixedyogart,-2.0,10.0,whitegrapes,"{""taste"":1,""health"":-1}","{""taste"":-1,""health"":0}",,,6
,492.0,,492.0,500.0,stim,single-stim-button,117,191589,0.0-116.0,dietary_decision,True,0,,No,492.0,decision,cookies,-1.0,11.0,whitegrapes,"{""taste"":""NaN"",""health"":-1}","{""taste"":-1,""health"":0}",,,6
,567.0,,567.0,500.0,stim,single-stim-button,118,192657,0.0-117.0,dietary_decision,True,0,,Yes,567.0,decision,cellery,1.0,12.0,whitegrapes,"{""taste"":-2,""health"":1}","{""taste"":-1,""health"":0}",,,6
,1088.0,,1088.0,500.0,stim,single-stim-button,119,194246,0.0-118.0,dietary_decision,True,0,,Neutral,1088.0,decision,laysclassic,0.0,13.0,whitegrapes,"{""taste"":-2,""health"":1}","{""taste"":-1,""health"":0}",,,6
,599.0,,599.0,500.0,stim,single-stim-button,120,195347,0.0-119.0,dietary_decision,True,0,,Strong_Yes,599.0,decision,cherryicecream,2.0,14.0,whitegrapes,"{""taste"":2,""health"":-1}","{""taste"":-1,""health"":0}",,,6
,562.0,,562.0,500.0,stim,single-stim-button,121,196411,0.0-120.0,dietary_decision,True,0,,Strong_No,562.0,decision,KitKat,-2.0,15.0,whitegrapes,"{""taste"":-1,""health"":2}","{""taste"":-1,""health"":0}",,,6
,474.0,,474.0,500.0,stim,single-stim-button,122,197386,0.0-121.0,dietary_decision,True,0,,No,474.0,decision,uTwix,-1.0,16.0,whitegrapes,"{""taste"":-1,""health"":1}","{""taste"":-1,""health"":0}",,,6
,541.0,,541.0,500.0,stim,single-stim-button,123,198429,0.0-122.0,dietary_decision,True,0,,Yes,541.0,decision,wwbrownie,1.0,17.0,whitegrapes,"{""taste"":-2,""health"":0}","{""taste"":-1,""health"":0}",,,6
,459.0,,459.0,500.0,stim,single-stim-button,124,199390,0.0-123.0,dietary_decision,True,0,,Neutral,459.0,decision,cookiencream,0.0,18.0,whitegrapes,"{""taste"":-2,""health"":1}","{""taste"":-1,""health"":0}",,,6
,2211.0,,2211.0,500.0,stim,single-stim-button,125,202102,0.0-124.0,dietary_decision,True,0,,No,2211.0,decision,ffraspsorbet,-1.0,19.0,whitegrapes,"{""taste"":-2,""health"":1}","{""taste"":-1,""health"":0}",,,6
,1053.0,,1053.0,500.0,stim,single-stim-button,126,203657,0.0-125.0,dietary_decision,True,0,,Strong_No,1053.0,decision,keeblerrainbow,-2.0,20.0,whitegrapes,"{""taste"":-1,""health"":1}","{""taste"":-1,""health"":0}",,,6
,984.0,,984.0,500.0,stim,single-stim-button,127,205142,0.0-126.0,dietary_decision,True,0,,Strong_No,984.0,decision,specialKbar,-2.0,21.0,whitegrapes,"{""taste"":1,""health"":0}","{""taste"":-1,""health"":0}",,,6
,925.0,,925.0,500.0,stim,single-stim-button,128,206568,0.0-127.0,dietary_decision,True,0,,Strong_No,925.0,decision,keeblerfudgestripes,-2.0,22.0,whitegrapes,"{""taste"":-2,""health"":0}","{""taste"":-1,""health"":0}",,,6
,1060.0,,1060.0,500.0,stim,single-stim-button,129,208130,0.0-128.0,dietary_decision,True,0,,Strong_No,1060.0,decision,ruffles,-2.0,23.0,whitegrapes,"{""taste"":-1,""health"":-2}","{""taste"":-1,""health"":0}",,,6
,922.0,,922.0,500.0,stim,single-stim-button,130,209552,0.0-129.0,dietary_decision,True,0,,Strong_No,922.0,decision,HoHo,-2.0,24.0,whitegrapes,"{""taste"":-2,""health"":-1}","{""taste"":-1,""health"":0}",,,6
,1234.0,,1234.0,500.0,stim,single-stim-button,131,211288,0.0-130.0,dietary_decision,True,0,,Strong_No,1234.0,decision,raisins,-2.0,25.0,whitegrapes,"{""taste"":1,""health"":-1}","{""taste"":-1,""health"":0}",,,6
,827.0,,827.0,500.0,stim,single-stim-button,132,212617,0.0-131.0,dietary_decision,True,0,,Strong_No,827.0,decision,sbdietbar,-2.0,26.0,whitegrapes,"{""taste"":""NaN"",""health"":-1}","{""taste"":-1,""health"":0}",,,6
,1763.0,,1763.0,500.0,stim,single-stim-button,133,214881,0.0-132.0,dietary_decision,True,0,,Strong_No,1763.0,decision,icecreamsandwich,-2.0,27.0,whitegrapes,"{""taste"":-2,""health"":-1}","{""taste"":-1,""health"":0}",,,6
,899.0,,899.0,500.0,stim,single-stim-button,134,216281,0.0-133.0,dietary_decision,True,0,,Strong_No,899.0,decision,Reeses,-2.0,28.0,whitegrapes,"{""taste"":-2,""health"":2}","{""taste"":-1,""health"":0}",,,6
,1282.0,,1282.0,500.0,stim,single-stim-button,136,222569,0.0-135.0,dietary_decision,True,0,,Strong_Yes,1282.0,decision,redgrapes,2.0,30.0,whitegrapes,"{""taste"":1,""health"":-2}","{""taste"":-1,""health"":0}",,,6
,828.0,,828.0,500.0,stim,single-stim-button,137,223898,0.0-136.0,dietary_decision,True,0,,Strong_Yes,828.0,decision,grannysmith,2.0,31.0,whitegrapes,"{""taste"":-1,""health"":1}","{""taste"":-1,""health"":0}",,,6
,797.0,,797.0,500.0,stim,single-stim-button,138,225196,0.0-137.0,dietary_decision,True,0,,Strong_Yes,797.0,decision,strawberries,2.0,32.0,whitegrapes,"{""taste"":2,""health"":0}","{""taste"":-1,""health"":0}",,,6
,2688.0,,2688.0,500.0,stim,single-stim-button,139,228386,0.0-138.0,dietary_decision,True,0,,Yes,2688.0,decision,sbcrackers,1.0,33.0,whitegrapes,"{""taste"":-2,""health"":-1}","{""taste"":-1,""health"":0}",,,6
,1064.0,,1064.0,500.0,stim,single-stim-button,140,229953,0.0-139.0,dietary_decision,True,0,,Yes,1064.0,decision,banana,1.0,34.0,whitegrapes,"{""taste"":1,""health"":0}","{""taste"":-1,""health"":0}",,,6
,2099.0,,2099.0,500.0,stim,single-stim-button,141,232553,0.0-140.0,dietary_decision,True,0,,Strong_No,2099.0,decision,100Grand,-2.0,35.0,whitegrapes,"{""taste"":-2,""health"":0}","{""taste"":-1,""health"":0}",,,6
,3602.0,,3602.0,500.0,stim,single-stim-button,142,236656,0.0-141.0,dietary_decision,True,0,,Strong_No,3602.0,decision,slimfastC,-2.0,36.0,whitegrapes,"{""taste"":-2,""health"":2}","{""taste"":-1,""health"":0}",,,6
,1064.0,,1064.0,500.0,stim,single-stim-button,143,238223,0.0-142.0,dietary_decision,True,0,,Strong_No,1064.0,decision,Oreos,-2.0,37.0,whitegrapes,"{""taste"":-2,""health"":0}","{""taste"":-1,""health"":0}",,,6
,2657.0,,2657.0,500.0,stim,single-stim-button,144,241380,0.0-143.0,dietary_decision,True,0,,Yes,2657.0,decision,cranberries,1.0,38.0,whitegrapes,"{""taste"":1,""health"":1}","{""taste"":-1,""health"":0}",,,6
,1106.0,,1106.0,500.0,stim,single-stim-button,146,247491,0.0-145.0,dietary_decision,True,0,,Strong_No,1106.0,decision,strussel,-2.0,40.0,whitegrapes,"{""taste"":-2,""health"":0}","{""taste"":-1,""health"":0}",,,6
,2254.0,,2254.0,500.0,stim,single-stim-button,147,250247,0.0-146.0,dietary_decision,True,0,,Strong_No,2254.0,decision,ChipsAhoy,-2.0,41.0,whitegrapes,"{""taste"":1,""health"":-2}","{""taste"":-1,""health"":0}",,,6
,1374.0,,1374.0,500.0,stim,single-stim-button,148,252123,0.0-147.0,dietary_decision,True,0,,Strong_No,1374.0,decision,FlamingCheetos,-2.0,42.0,whitegrapes,"{""taste"":2,""health"":1}","{""taste"":-1,""health"":0}",,,6
,2916.0,,2916.0,500.0,stim,single-stim-button,149,255541,0.0-148.0,dietary_decision,True,0,,Strong_No,2916.0,decision,wwmuffin,-2.0,43.0,whitegrapes,"{""taste"":-2,""health"":-2}","{""taste"":-1,""health"":0}",,,6
,3619.0,,3619.0,500.0,stim,single-stim-button,150,259661,0.0-149.0,dietary_decision,True,0,,Yes,3619.0,decision,frozenyogart,1.0,44.0,whitegrapes,"{""taste"":-2,""health"":0}","{""taste"":-1,""health"":0}",,,6
,2780.0,,2780.0,500.0,stim,single-stim-button,151,262943,0.0-150.0,dietary_decision,True,0,,Strong_No,2780.0,decision,Lindt,-2.0,45.0,whitegrapes,"{""taste"":-2,""health"":-1}","{""taste"":-1,""health"":0}",,,6
,1139.0,,1139.0,500.0,stim,single-stim-button,152,264583,0.0-151.0,dietary_decision,True,0,,Strong_No,1139.0,decision,butterfinger,-2.0,46.0,whitegrapes,"{""taste"":-2,""health"":0}","{""taste"":-1,""health"":0}",,,6
,3236.0,,3236.0,500.0,stim,single-stim-button,153,268321,0.0-152.0,dietary_decision,True,0,,Neutral,3236.0,decision,wheatcrisps,0.0,47.0,whitegrapes,"{""taste"":1,""health"":-2}","{""taste"":-1,""health"":0}",,,6
,1135.0,,1135.0,500.0,stim,single-stim-button,154,269956,0.0-153.0,dietary_decision,True,0,,Yes,1135.0,decision,carrots,1.0,48.0,whitegrapes,"{""taste"":-2,""health"":-1}","{""taste"":-1,""health"":0}",,,6
,3333.0,,3333.0,500.0,stim,single-stim-button,106,331821,0.0-106.0,dietary_decision,True,0,,No,3333.0,decision,FlamingCheetos,-1.0,0.0,Reeses,"{""health"":-1,""taste"":-1}","{""health"":1,""taste"":1}",,,7
,3779.0,,3779.0,500.0,stim,single-stim-button,107,336107,0.0-107.0,dietary_decision,True,0,,Yes,3779.0,decision,KitKat,1.0,1.0,Reeses,"{""health"":0,""taste"":2}","{""health"":1,""taste"":1}",,,7
,2200.0,,2200.0,500.0,stim,single-stim-button,108,338816,0.0-108.0,dietary_decision,True,0,,Yes,2200.0,decision,slimfastC,1.0,2.0,Reeses,"{""health"":1,""taste"":0}","{""health"":1,""taste"":1}",,,7
,1644.0,,1644.0,500.0,stim,single-stim-button,109,340972,0.0-109.0,dietary_decision,True,0,,Neutral,1644.0,decision,brocollincauliflower,0.0,3.0,Reeses,"{""health"":2,""taste"":1}","{""health"":1,""taste"":1}",,,7
,1797.0,,1797.0,500.0,stim,single-stim-button,110,343278,0.0-110.0,dietary_decision,True,0,,Strong_Yes,1797.0,decision,HoHo,2.0,4.0,Reeses,"{""health"":0,""taste"":2}","{""health"":1,""taste"":1}",,,7
,1834.0,,1834.0,500.0,stim,single-stim-button,111,345613,0.0-111.0,dietary_decision,True,0,,Yes,1834.0,decision,redgrapes,1.0,5.0,Reeses,"{""health"":2,""taste"":1}","{""health"":1,""taste"":1}",,,7
,2476.0,,2476.0,500.0,stim,single-stim-button,112,348590,0.0-112.0,dietary_decision,True,0,,Strong_No,2476.0,decision,sbdietbar,-2.0,6.0,Reeses,"{""health"":-2,""taste"":1}","{""health"":1,""taste"":1}",,,7
,1823.0,,1823.0,500.0,stim,single-stim-button,113,350916,0.0-113.0,dietary_decision,True,0,,No,1823.0,decision,wwbrownie,-1.0,7.0,Reeses,"{""health"":-1,""taste"":1}","{""health"":1,""taste"":1}",,,7
,2801.0,,2801.0,500.0,stim,single-stim-button,114,354219,0.0-114.0,dietary_decision,True,0,,Yes,2801.0,decision,Doritosranch,1.0,8.0,Reeses,"{""health"":1,""taste"":-1}","{""health"":1,""taste"":1}",,,7
,1357.0,,1357.0,500.0,stim,single-stim-button,115,356081,0.0-115.0,dietary_decision,True,0,,Yes,1357.0,decision,strawberries,1.0,9.0,Reeses,"{""health"":2,""taste"":1}","{""health"":1,""taste"":1}",,,7
,1452.0,,1452.0,500.0,stim,single-stim-button,116,358034,0.0-116.0,dietary_decision,True,0,,Neutral,1452.0,decision,orange,0.0,10.0,Reeses,"{""health"":2,""taste"":0}","{""health"":1,""taste"":1}",,,7
,1457.0,,1457.0,500.0,stim,single-stim-button,117,360003,0.0-117.0,dietary_decision,True,0,,Strong_Yes,1457.0,decision,Lindt,2.0,11.0,Reeses,"{""health"":1,""taste"":2}","{""health"":1,""taste"":1}",,,7
,1780.0,,1780.0,500.0,stim,single-stim-button,118,362285,0.0-118.0,dietary_decision,True,0,,Strong_Yes,1780.0,decision,100Grand,2.0,12.0,Reeses,"{""health"":0,""taste"":2}","{""health"":1,""taste"":1}",,,7
,2084.0,,2084.0,500.0,stim,single-stim-button,119,364869,0.0-119.0,dietary_decision,True,0,,Strong_No,2084.0,decision,keeblerfudgestripes,-2.0,13.0,Reeses,"{""health"":1,""taste"":-1}","{""health"":1,""taste"":1}",,,7
,1689.0,,1689.0,500.0,stim,single-stim-button,120,367072,0.0-120.0,dietary_decision,True,0,,No,1689.0,decision,frozenyogart,-1.0,14.0,Reeses,"{""health"":-1,""taste"":1}","{""health"":1,""taste"":1}",,,7
,3928.0,,3928.0,500.0,stim,single-stim-button,121,371504,0.0-121.0,dietary_decision,True,0,,Yes,3928.0,decision,raisins,1.0,15.0,Reeses,"{""health"":2,""taste"":0}","{""health"":1,""taste"":1}",,,7
,2582.0,,2582.0,500.0,stim,single-stim-button,122,374599,0.0-122.0,dietary_decision,True,0,,Strong_Yes,2582.0,decision,wwmuffin,2.0,16.0,Reeses,"{""health"":1,""taste"":2}","{""health"":1,""taste"":1}",,,7
,3485.0,,3485.0,500.0,stim,single-stim-button,123,378588,0.0-123.0,dietary_decision,True,0,,Yes,3485.0,decision,cherryicecream,1.0,17.0,Reeses,"{""health"":-1,""taste"":2}","{""health"":1,""taste"":1}",,,7
,1934.0,,1934.0,500.0,stim,single-stim-button,124,381031,0.0-124.0,dietary_decision,True,0,,Strong_No,1934.0,decision,sbcrackers,-2.0,18.0,Reeses,"{""health"":2,""taste"":0}","{""health"":1,""taste"":1}",,,7
,1910.0,,1910.0,500.0,stim,single-stim-button,125,383442,0.0-125.0,dietary_decision,True,0,,No,1910.0,decision,strussel,-1.0,19.0,Reeses,"{""health"":1,""taste"":0}","{""health"":1,""taste"":1}",,,7
,1614.0,,1614.0,500.0,stim,single-stim-button,126,385561,0.0-126.0,dietary_decision,True,0,,Neutral,1614.0,decision,cranberries,0.0,20.0,Reeses,"{""health"":2,""taste"":1}","{""health"":1,""taste"":1}",,,7
,1594.0,,1594.0,500.0,stim,single-stim-button,127,387659,0.0-127.0,dietary_decision,True,0,,Yes,1594.0,decision,banana,1.0,21.0,Reeses,"{""health"":2,""taste"":-1}","{""health"":1,""taste"":1}",,,7
,3284.0,,3284.0,500.0,stim,single-stim-button,128,391455,0.0-128.0,dietary_decision,True,0,,Strong_Yes,3284.0,decision,cookiencream,2.0,22.0,Reeses,"{""health"":1,""taste"":2}","{""health"":1,""taste"":1}",,,7
,1096.0,,1096.0,500.0,stim,single-stim-button,129,393063,0.0-129.0,dietary_decision,True,0,,Strong_Yes,1096.0,decision,uToberlorone,2.0,23.0,Reeses,"{""health"":-1,""taste"":1}","{""health"":1,""taste"":1}",,,7
,2857.0,,2857.0,500.0,stim,single-stim-button,130,396426,0.0-130.0,dietary_decision,True,0,,Yes,2857.0,decision,specialKbar,1.0,24.0,Reeses,"{""health"":-1,""taste"":0}","{""health"":1,""taste"":1}",,,7
,1892.0,,1892.0,500.0,stim,single-stim-button,131,398833,0.0-131.0,dietary_decision,True,0,,Strong_No,1892.0,decision,carrots,-2.0,25.0,Reeses,"{""health"":-1,""taste"":-1}","{""health"":1,""taste"":1}",,,7
,1506.0,,1506.0,500.0,stim,single-stim-button,132,400851,0.0-132.0,dietary_decision,True,0,,No,1506.0,decision,MrsFields,-1.0,26.0,Reeses,"{""health"":0,""taste"":1}","{""health"":1,""taste"":1}",,,7
,1151.0,,1151.0,500.0,stim,single-stim-button,133,402504,0.0-133.0,dietary_decision,True,0,,No,1151.0,decision,RiceKrispyTreat,-1.0,27.0,Reeses,"{""health"":0,""taste"":-1}","{""health"":1,""taste"":1}",,,7
,1601.0,,1601.0,500.0,stim,single-stim-button,134,404621,0.0-134.0,dietary_decision,True,0,,Yes,1601.0,decision,ffraspsorbet,1.0,28.0,Reeses,"{""health"":2,""taste"":2}","{""health"":1,""taste"":1}",,,7
,2038.0,,2038.0,500.0,stim,single-stim-button,135,407170,0.0-135.0,dietary_decision,True,0,,Yes,2038.0,decision,FamousAmos,1.0,29.0,Reeses,"{""health"":0,""taste"":1}","{""health"":1,""taste"":1}",,,7
,1051.0,,1051.0,500.0,stim,single-stim-button,136,408730,0.0-136.0,dietary_decision,True,0,,Yes,1051.0,decision,slimfastV,1.0,30.0,Reeses,"{""health"":1,""taste"":1}","{""health"":1,""taste"":1}",,,7
,1725.0,,1725.0,500.0,stim,single-stim-button,137,410964,0.0-137.0,dietary_decision,True,0,,Strong_No,1725.0,decision,orangejello,-2.0,31.0,Reeses,"{""health"":-2,""taste"":-2}","{""health"":1,""taste"":1}",,,7
,1662.0,,1662.0,500.0,stim,single-stim-button,138,413142,0.0-138.0,dietary_decision,True,0,,No,1662.0,decision,wheatcrisps,-1.0,32.0,Reeses,"{""health"":2,""taste"":-2}","{""health"":1,""taste"":1}",,,7
,1730.0,,1730.0,500.0,stim,single-stim-button,139,415379,0.0-139.0,dietary_decision,True,0,,Neutral,1730.0,decision,whitegrapes,0.0,33.0,Reeses,"{""health"":2,""taste"":1}","{""health"":1,""taste"":1}",,,7
,2647.0,,2647.0,500.0,stim,single-stim-button,140,418536,0.0-140.0,dietary_decision,True,0,,Strong_Yes,2647.0,decision,blueberryyogart,2.0,34.0,Reeses,"{""health"":2,""taste"":2}","{""health"":1,""taste"":1}",,,7
,2492.0,,2492.0,500.0,stim,single-stim-button,141,421530,0.0-141.0,dietary_decision,True,0,,Strong_Yes,2492.0,decision,butterfinger,2.0,35.0,Reeses,"{""health"":-1,""taste"":2}","{""health"":1,""taste"":1}",,,7
,1273.0,,1273.0,500.0,stim,single-stim-button,142,423304,0.0-142.0,dietary_decision,True,0,,Strong_Yes,1273.0,decision,ChipsAhoy,2.0,36.0,Reeses,"{""health"":0,""taste"":1}","{""health"":1,""taste"":1}",,,7
,1348.0,,1348.0,500.0,stim,single-stim-button,143,425154,0.0-143.0,dietary_decision,True,0,,Yes,1348.0,decision,cookies,1.0,37.0,Reeses,"{""health"":-1,""taste"":1}","{""health"":1,""taste"":1}",,,7
,1246.0,,1246.0,500.0,stim,single-stim-button,144,426902,0.0-144.0,dietary_decision,True,0,,Neutral,1246.0,decision,reddelicious,0.0,38.0,Reeses,"{""health"":2,""taste"":-1}","{""health"":1,""taste"":1}",,,7
,1526.0,,1526.0,500.0,stim,single-stim-button,145,428941,0.0-145.0,dietary_decision,True,0,,Strong_Yes,1526.0,decision,uTwix,2.0,39.0,Reeses,"{""health"":-1,""taste"":1}","{""health"":1,""taste"":1}",,,7
,1301.0,,1301.0,500.0,stim,single-stim-button,146,430743,0.0-146.0,dietary_decision,True,0,,Strong_Yes,1301.0,decision,Oreos,2.0,40.0,Reeses,"{""health"":-1,""taste"":0}","{""health"":1,""taste"":1}",,,7
,1630.0,,1630.0,500.0,stim,single-stim-button,147,432874,0.0-147.0,dietary_decision,True,0,,Strong_No,1630.0,decision,keeblerrainbow,-2.0,41.0,Reeses,"{""health"":1,""taste"":-2}","{""health"":1,""taste"":1}",,,7
,1463.0,,1463.0,500.0,stim,single-stim-button,148,434852,0.0-148.0,dietary_decision,True,0,,No,1463.0,decision,laysclassic,-1.0,42.0,Reeses,"{""health"":-2,""taste"":1}","{""health"":1,""taste"":1}",,,7
,1977.0,,1977.0,500.0,stim,single-stim-button,149,437335,0.0-149.0,dietary_decision,True,0,,No,1977.0,decision,grannysmith,-1.0,43.0,Reeses,"{""health"":2,""taste"":0}","{""health"":1,""taste"":1}",,,7
,1573.0,,1573.0,500.0,stim,single-stim-button,150,439409,0.0-150.0,dietary_decision,True,0,,Yes,1573.0,decision,icecreamsandwich,1.0,44.0,Reeses,"{""health"":1,""taste"":1}","{""health"":1,""taste"":1}",,,7
,1490.0,,1490.0,500.0,stim,single-stim-button,151,441400,0.0-151.0,dietary_decision,True,0,,Yes,1490.0,decision,mixedyogart,1.0,45.0,Reeses,"{""health"":-1,""taste"":1}","{""health"":1,""taste"":1}",,,7
,1887.0,,1887.0,500.0,stim,single-stim-button,152,443787,0.0-152.0,dietary_decision,True,0,,Yes,1887.0,decision,cellery,1.0,46.0,Reeses,"{""health"":1,""taste"":1}","{""health"":1,""taste"":1}",,,7
,2239.0,,2239.0,500.0,stim,single-stim-button,153,446528,0.0-153.0,dietary_decision,True,0,,No,2239.0,decision,ruffles,-1.0,47.0,Reeses,"{""health"":1,""taste"":-1}","{""health"":1,""taste"":1}",,,7
,2140.0,,2140.0,500.0,stim,single-stim-button,154,449171,0.0-154.0,dietary_decision,True,0,,Strong_Yes,2140.0,decision,Ghiradelli,2.0,48.0,Reeses,"{""health"":""NaN"",""taste"":-1}","{""health"":1,""taste"":1}",,,7
,3386.0,,3386.0,500.0,stim,single-stim-button,106,198467,0.0-106.0,dietary_decision,True,0,,Yes,3386.0,decision,cranberries,1.0,0.0,HoHo,"{""health"":1,""taste"":2}","{""health"":0,""taste"":2}",,,8
,2354.0,,2354.0,500.0,stim,single-stim-button,107,201323,0.0-107.0,dietary_decision,True,0,,Neutral,2354.0,decision,frozenyogart,0.0,1.0,HoHo,"{""health"":1,""taste"":1}","{""health"":0,""taste"":2}",,,8
,1178.0,,1178.0,500.0,stim,single-stim-button,108,203002,0.0-108.0,dietary_decision,True,0,,Strong_Yes,1178.0,decision,reddelicious,2.0,2.0,HoHo,"{""health"":2,""taste"":2}","{""health"":0,""taste"":2}",,,8
,842.0,,842.0,500.0,stim,single-stim-button,109,204345,0.0-109.0,dietary_decision,True,0,,Strong_Yes,842.0,decision,butterfinger,2.0,3.0,HoHo,"{""health"":-1,""taste"":2}","{""health"":0,""taste"":2}",,,8
,684.0,,684.0,500.0,stim,single-stim-button,110,205532,0.0-110.0,dietary_decision,True,0,,Strong_Yes,684.0,decision,uTwix,2.0,4.0,HoHo,"{""health"":0,""taste"":2}","{""health"":0,""taste"":2}",,,8
,1178.0,,1178.0,500.0,stim,single-stim-button,111,207211,0.0-111.0,dietary_decision,True,0,,Yes,1178.0,decision,laysclassic,1.0,5.0,HoHo,"{""health"":0,""taste"":2}","{""health"":0,""taste"":2}",,,8
,909.0,,909.0,500.0,stim,single-stim-button,112,208622,0.0-112.0,dietary_decision,True,0,,Strong_Yes,909.0,decision,Reeses,2.0,6.0,HoHo,"{""health"":0,""taste"":2}","{""health"":0,""taste"":2}",,,8
,1276.0,,1276.0,500.0,stim,single-stim-button,113,210399,0.0-113.0,dietary_decision,True,0,,Yes,1276.0,decision,redgrapes,1.0,7.0,HoHo,"{""health"":""NaN"",""taste"":2}","{""health"":0,""taste"":2}",,,8
,2621.0,,2621.0,500.0,stim,single-stim-button,114,213522,0.0-114.0,dietary_decision,True,0,,No,2621.0,decision,wheatcrisps,-1.0,8.0,HoHo,"{""health"":2,""taste"":2}","{""health"":0,""taste"":2}",,,8
,2214.0,,2214.0,500.0,stim,single-stim-button,115,216236,0.0-115.0,dietary_decision,True,0,,Yes,2214.0,decision,slimfastC,1.0,9.0,HoHo,"{""health"":2,""taste"":2}","{""health"":0,""taste"":2}",,,8
,1562.0,,1562.0,500.0,stim,single-stim-button,116,218300,0.0-116.0,dietary_decision,True,0,,Yes,1562.0,decision,orangejello,1.0,10.0,HoHo,"{""health"":0,""taste"":2}","{""health"":0,""taste"":2}",,,8
,1539.0,,1539.0,500.0,stim,single-stim-button,117,220341,0.0-117.0,dietary_decision,True,0,,Yes,1539.0,decision,wwmuffin,1.0,11.0,HoHo,"{""health"":-1,""taste"":2}","{""health"":0,""taste"":2}",,,8
,3756.0,,3756.0,500.0,stim,single-stim-button,118,224597,0.0-118.0,dietary_decision,True,0,,Yes,3756.0,decision,RiceKrispyTreat,1.0,12.0,HoHo,"{""health"":-1,""taste"":2}","{""health"":0,""taste"":2}",,,8
,1021.0,,1021.0,500.0,stim,single-stim-button,120,230625,0.0-120.0,dietary_decision,True,0,,Strong_Yes,1021.0,decision,ffraspsorbet,2.0,14.0,HoHo,"{""health"":1,""taste"":2}","{""health"":0,""taste"":2}",,,8
,1586.0,,1586.0,500.0,stim,single-stim-button,121,232712,0.0-121.0,dietary_decision,True,0,,No,1586.0,decision,brocollincauliflower,-1.0,15.0,HoHo,"{""health"":2,""taste"":2}","{""health"":0,""taste"":2}",,,8
,1676.0,,1676.0,500.0,stim,single-stim-button,122,234890,0.0-122.0,dietary_decision,True,0,,Yes,1676.0,decision,mixedyogart,1.0,16.0,HoHo,"{""health"":1,""taste"":2}","{""health"":0,""taste"":2}",,,8
,902.0,,902.0,500.0,stim,single-stim-button,123,236293,0.0-123.0,dietary_decision,True,0,,Yes,902.0,decision,ChipsAhoy,1.0,17.0,HoHo,"{""health"":-1,""taste"":2}","{""health"":0,""taste"":2}",,,8
,754.0,,754.0,500.0,stim,single-stim-button,124,237548,0.0-124.0,dietary_decision,True,0,,Yes,754.0,decision,wwbrownie,1.0,18.0,HoHo,"{""health"":-1,""taste"":2}","{""health"":0,""taste"":2}",,,8
,722.0,,722.0,500.0,stim,single-stim-button,125,238771,0.0-125.0,dietary_decision,True,0,,Strong_Yes,722.0,decision,MrsFields,2.0,19.0,HoHo,"{""health"":0,""taste"":2}","{""health"":0,""taste"":2}",,,8
,697.0,,697.0,500.0,stim,single-stim-button,126,239970,0.0-126.0,dietary_decision,True,0,,Strong_Yes,697.0,decision,icecreamsandwich,2.0,20.0,HoHo,"{""health"":-1,""taste"":2}","{""health"":0,""taste"":2}",,,8
,714.0,,714.0,500.0,stim,single-stim-button,127,241185,0.0-127.0,dietary_decision,True,0,,Strong_Yes,714.0,decision,strawberries,2.0,21.0,HoHo,"{""health"":2,""taste"":2}","{""health"":0,""taste"":2}",,,8
,705.0,,705.0,500.0,stim,single-stim-button,128,242392,0.0-128.0,dietary_decision,True,0,,Strong_Yes,705.0,decision,keeblerfudgestripes,2.0,22.0,HoHo,"{""health"":-1,""taste"":2}","{""health"":0,""taste"":2}",,,8
,1169.0,,1169.0,500.0,stim,single-stim-button,129,244063,0.0-129.0,dietary_decision,True,0,,Yes,1169.0,decision,100Grand,1.0,23.0,HoHo,"{""health"":0,""taste"":2}","{""health"":0,""taste"":2}",,,8
,796.0,,796.0,500.0,stim,single-stim-button,130,245361,0.0-130.0,dietary_decision,True,0,,Strong_Yes,796.0,decision,strussel,2.0,24.0,HoHo,"{""health"":-1,""taste"":2}","{""health"":0,""taste"":2}",,,8
,763.0,,763.0,500.0,stim,single-stim-button,131,246626,0.0-131.0,dietary_decision,True,0,,Strong_Yes,763.0,decision,cookies,2.0,25.0,HoHo,"{""health"":0,""taste"":2}","{""health"":0,""taste"":2}",,,8
,729.0,,729.0,500.0,stim,single-stim-button,132,247856,0.0-132.0,dietary_decision,True,0,,Strong_Yes,729.0,decision,Oreos,2.0,26.0,HoHo,"{""health"":-1,""taste"":2}","{""health"":0,""taste"":2}",,,8
,656.0,,656.0,500.0,stim,single-stim-button,133,249013,0.0-133.0,dietary_decision,True,0,,Strong_Yes,656.0,decision,FlamingCheetos,2.0,27.0,HoHo,"{""health"":0,""taste"":2}","{""health"":0,""taste"":2}",,,8
,852.0,,852.0,500.0,stim,single-stim-button,134,250368,0.0-134.0,dietary_decision,True,0,,Strong_Yes,852.0,decision,cookiencream,2.0,28.0,HoHo,"{""health"":0,""taste"":2}","{""health"":0,""taste"":2}",,,8
,738.0,,738.0,500.0,stim,single-stim-button,135,251607,0.0-135.0,dietary_decision,True,0,,Strong_Yes,738.0,decision,raisins,2.0,29.0,HoHo,"{""health"":2,""taste"":0}","{""health"":0,""taste"":2}",,,8
,795.0,,795.0,500.0,stim,single-stim-button,136,252904,0.0-136.0,dietary_decision,True,0,,Strong_Yes,795.0,decision,sbdietbar,2.0,30.0,HoHo,"{""health"":1,""taste"":2}","{""health"":0,""taste"":2}",,,8
,982.0,,982.0,500.0,stim,single-stim-button,137,254387,0.0-137.0,dietary_decision,True,0,,Strong_Yes,982.0,decision,Ghiradelli,2.0,31.0,HoHo,"{""health"":0,""taste"":2}","{""health"":0,""taste"":2}",,,8
,2101.0,,2101.0,500.0,stim,single-stim-button,138,256989,0.0-138.0,dietary_decision,True,0,,No,2101.0,decision,cellery,-1.0,32.0,HoHo,"{""health"":2,""taste"":0}","{""health"":0,""taste"":2}",,,8
,1634.0,,1634.0,500.0,stim,single-stim-button,139,259125,0.0-139.0,dietary_decision,True,0,,No,1634.0,decision,specialKbar,-1.0,33.0,HoHo,"{""health"":-1,""taste"":2}","{""health"":0,""taste"":2}",,,8
,1144.0,,1144.0,500.0,stim,single-stim-button,140,260770,0.0-140.0,dietary_decision,True,0,,Yes,1144.0,decision,carrots,1.0,34.0,HoHo,"{""health"":2,""taste"":2}","{""health"":0,""taste"":2}",,,8
,1269.0,,1269.0,500.0,stim,single-stim-button,141,262542,0.0-141.0,dietary_decision,True,0,,Yes,1269.0,decision,uToberlorone,1.0,35.0,HoHo,"{""health"":-1,""taste"":2}","{""health"":0,""taste"":2}",,,8
,957.0,,957.0,500.0,stim,single-stim-button,142,264001,0.0-142.0,dietary_decision,True,0,,Strong_Yes,957.0,decision,blueberryyogart,2.0,36.0,HoHo,"{""health"":2,""taste"":2}","{""health"":0,""taste"":2}",,,8
,779.0,,779.0,500.0,stim,single-stim-button,143,265282,0.0-143.0,dietary_decision,True,0,,Yes,779.0,decision,whitegrapes,1.0,37.0,HoHo,"{""health"":1,""taste"":2}","{""health"":0,""taste"":2}",,,8
,908.0,,908.0,500.0,stim,single-stim-button,144,266692,0.0-144.0,dietary_decision,True,0,,Strong_Yes,908.0,decision,KitKat,2.0,38.0,HoHo,"{""health"":0,""taste"":2}","{""health"":0,""taste"":2}",,,8
,909.0,,909.0,500.0,stim,single-stim-button,145,268103,0.0-145.0,dietary_decision,True,0,,Strong_Yes,909.0,decision,banana,2.0,39.0,HoHo,"{""health"":2,""taste"":2}","{""health"":0,""taste"":2}",,,8
,1243.0,,1243.0,500.0,stim,single-stim-button,146,269848,0.0-146.0,dietary_decision,True,0,,Yes,1243.0,decision,ruffles,1.0,40.0,HoHo,"{""health"":0,""taste"":2}","{""health"":0,""taste"":2}",,,8
,1063.0,,1063.0,500.0,stim,single-stim-button,147,271413,0.0-147.0,dietary_decision,True,0,,Yes,1063.0,decision,sbcrackers,1.0,41.0,HoHo,"{""health"":-1,""taste"":2}","{""health"":0,""taste"":2}",,,8
,935.0,,935.0,500.0,stim,single-stim-button,148,272849,0.0-148.0,dietary_decision,True,0,,Strong_Yes,935.0,decision,Lindt,2.0,42.0,HoHo,"{""health"":0,""taste"":2}","{""health"":0,""taste"":2}",,,8
,2146.0,,2146.0,500.0,stim,single-stim-button,149,275498,0.0-149.0,dietary_decision,True,0,,Yes,2146.0,decision,FamousAmos,1.0,43.0,HoHo,"{""health"":0,""taste"":2}","{""health"":0,""taste"":2}",,,8
,983.0,,983.0,500.0,stim,single-stim-button,150,276983,0.0-150.0,dietary_decision,True,0,,Strong_Yes,983.0,decision,cherryicecream,2.0,44.0,HoHo,"{""health"":2,""taste"":2}","{""health"":0,""taste"":2}",,,8
,820.0,,820.0,500.0,stim,single-stim-button,151,278304,0.0-151.0,dietary_decision,True,0,,Strong_Yes,820.0,decision,keeblerrainbow,2.0,45.0,HoHo,"{""health"":0,""taste"":2}","{""health"":0,""taste"":2}",,,8
,949.0,,949.0,500.0,stim,single-stim-button,152,279754,0.0-152.0,dietary_decision,True,0,,Strong_Yes,949.0,decision,orange,2.0,46.0,HoHo,"{""health"":2,""taste"":2}","{""health"":0,""taste"":2}",,,8
,1747.0,,1747.0,500.0,stim,single-stim-button,153,282003,0.0-153.0,dietary_decision,True,0,,Yes,1747.0,decision,Doritosranch,1.0,47.0,HoHo,"{""health"":-1,""taste"":2}","{""health"":0,""taste"":2}",,,8
,1209.0,,1209.0,500.0,stim,single-stim-button,154,283713,0.0-154.0,dietary_decision,True,0,,Strong_Yes,1209.0,decision,grannysmith,2.0,48.0,HoHo,"{""health"":2,""taste"":2}","{""health"":0,""taste"":2}",,,8
,3933.0,,3933.0,500.0,stim,single-stim-button,106,299103,0.0-106.0,dietary_decision,True,0,,Yes,3933.0,decision,Ghiradelli,1.0,0.0,Lindt,"{""health"":-1,""taste"":1}","{""health"":0,""taste"":1}",,,9
,2813.0,,2813.0,500.0,stim,single-stim-button,107,302431,0.0-107.0,dietary_decision,True,0,,Yes,2813.0,decision,cookiencream,1.0,1.0,Lindt,"{""health"":0,""taste"":2}","{""health"":0,""taste"":1}",,,9
,3448.0,,3448.0,500.0,stim,single-stim-button,109,310913,0.0-109.0,dietary_decision,True,0,,No,3448.0,decision,sbdietbar,-1.0,3.0,Lindt,"{""health"":2,""taste"":0}","{""health"":0,""taste"":1}",,,9
,1565.0,,1565.0,500.0,stim,single-stim-button,110,312986,0.0-110.0,dietary_decision,True,0,,No,1565.0,decision,keeblerfudgestripes,-1.0,4.0,Lindt,"{""health"":-1,""taste"":0}","{""health"":0,""taste"":1}",,,9
,1946.0,,1946.0,500.0,stim,single-stim-button,111,315444,0.0-111.0,dietary_decision,True,0,,No,1946.0,decision,Doritosranch,-1.0,5.0,Lindt,"{""health"":-1,""taste"":1}","{""health"":0,""taste"":1}",,,9
,1767.0,,1767.0,500.0,stim,single-stim-button,112,317726,0.0-112.0,dietary_decision,True,0,,Strong_Yes,1767.0,decision,icecreamsandwich,2.0,6.0,Lindt,"{""health"":-1,""taste"":2}","{""health"":0,""taste"":1}",,,9
,1644.0,,1644.0,500.0,stim,single-stim-button,113,319872,0.0-113.0,dietary_decision,True,0,,Neutral,1644.0,decision,ruffles,0.0,7.0,Lindt,"{""health"":-1,""taste"":-1}","{""health"":0,""taste"":1}",,,9
,2366.0,,2366.0,500.0,stim,single-stim-button,114,322754,0.0-114.0,dietary_decision,True,0,,Yes,2366.0,decision,Oreos,1.0,8.0,Lindt,"{""health"":-1,""taste"":0}","{""health"":0,""taste"":1}",,,9
,3275.0,,3275.0,500.0,stim,single-stim-button,115,326543,0.0-115.0,dietary_decision,True,0,,Neutral,3275.0,decision,wwbrownie,0.0,9.0,Lindt,"{""health"":-1,""taste"":1}","{""health"":0,""taste"":1}",,,9
,1707.0,,1707.0,500.0,stim,single-stim-button,116,328751,0.0-116.0,dietary_decision,True,0,,Neutral,1707.0,decision,mixedyogart,0.0,10.0,Lindt,"{""health"":1,""taste"":1}","{""health"":0,""taste"":1}",,,9
,1508.0,,1508.0,500.0,stim,single-stim-button,117,330774,0.0-117.0,dietary_decision,True,0,,Neutral,1508.0,decision,orange,0.0,11.0,Lindt,"{""health"":2,""taste"":1}","{""health"":0,""taste"":1}",,,9
,2957.0,,2957.0,500.0,stim,single-stim-button,118,334246,0.0-118.0,dietary_decision,True,0,,Yes,2957.0,decision,frozenyogart,1.0,12.0,Lindt,"{""health"":1,""taste"":1}","{""health"":0,""taste"":1}",,,9
,1901.0,,1901.0,500.0,stim,single-stim-button,119,336653,0.0-119.0,dietary_decision,True,0,,No,1901.0,decision,MrsFields,-1.0,13.0,Lindt,"{""health"":""NaN"",""taste"":1}","{""health"":0,""taste"":1}",,,9
,1860.0,,1860.0,500.0,stim,single-stim-button,120,339015,0.0-120.0,dietary_decision,True,0,,No,1860.0,decision,strawberries,-1.0,14.0,Lindt,"{""health"":2,""taste"":2}","{""health"":0,""taste"":1}",,,9
,1494.0,,1494.0,500.0,stim,single-stim-button,121,341019,0.0-121.0,dietary_decision,True,0,,No,1494.0,decision,whitegrapes,-1.0,15.0,Lindt,"{""health"":2,""taste"":0}","{""health"":0,""taste"":1}",,,9
,1659.0,,1659.0,500.0,stim,single-stim-button,122,343191,0.0-122.0,dietary_decision,True,0,,Neutral,1659.0,decision,FamousAmos,0.0,16.0,Lindt,"{""health"":-1,""taste"":1}","{""health"":0,""taste"":1}",,,9
,2945.0,,2945.0,500.0,stim,single-stim-button,123,346641,0.0-123.0,dietary_decision,True,0,,Neutral,2945.0,decision,laysclassic,0.0,17.0,Lindt,"{""health"":-1,""taste"":1}","{""health"":0,""taste"":1}",,,9
,2555.0,,2555.0,500.0,stim,single-stim-button,124,349699,0.0-124.0,dietary_decision,True,0,,Yes,2555.0,decision,butterfinger,1.0,18.0,Lindt,"{""health"":-1,""taste"":1}","{""health"":0,""taste"":1}",,,9
,1429.0,,1429.0,500.0,stim,single-stim-button,125,351642,0.0-125.0,dietary_decision,True,0,,Yes,1429.0,decision,slimfastC,1.0,19.0,Lindt,"{""health"":1,""taste"":1}","{""health"":0,""taste"":1}",,,9
,1478.0,,1478.0,500.0,stim,single-stim-button,126,353627,0.0-126.0,dietary_decision,True,0,,Neutral,1478.0,decision,sbcrackers,0.0,20.0,Lindt,"{""health"":1,""taste"":0}","{""health"":0,""taste"":1}",,,9
,1800.0,,1800.0,500.0,stim,single-stim-button,127,355929,0.0-127.0,dietary_decision,True,0,,Yes,1800.0,decision,uToberlorone,1.0,21.0,Lindt,"{""health"":-1,""taste"":1}","{""health"":0,""taste"":1}",,,9
,1499.0,,1499.0,500.0,stim,single-stim-button,128,357937,0.0-128.0,dietary_decision,True,0,,Neutral,1499.0,decision,slimfastV,0.0,22.0,Lindt,"{""health"":0,""taste"":1}","{""health"":0,""taste"":1}",,,9
,2054.0,,2054.0,500.0,stim,single-stim-button,129,360506,0.0-129.0,dietary_decision,True,0,,No,2054.0,decision,100Grand,-1.0,23.0,Lindt,"{""health"":-1,""taste"":0}","{""health"":0,""taste"":1}",,,9
,1489.0,,1489.0,500.0,stim,single-stim-button,130,362508,0.0-130.0,dietary_decision,True,0,,No,1489.0,decision,cellery,-1.0,24.0,Lindt,"{""health"":2,""taste"":0}","{""health"":0,""taste"":1}",,,9
,1379.0,,1379.0,500.0,stim,single-stim-button,131,364402,0.0-131.0,dietary_decision,True,0,,Neutral,1379.0,decision,cranberries,0.0,25.0,Lindt,"{""health"":2,""taste"":0}","{""health"":0,""taste"":1}",,,9
,2555.0,,2555.0,500.0,stim,single-stim-button,132,367473,0.0-132.0,dietary_decision,True,0,,No,2555.0,decision,strussel,-1.0,26.0,Lindt,"{""health"":0,""taste"":1}","{""health"":0,""taste"":1}",,,9
,1842.0,,1842.0,500.0,stim,single-stim-button,133,369830,0.0-133.0,dietary_decision,True,0,,Strong_No,1842.0,decision,brocollincauliflower,-2.0,27.0,Lindt,"{""health"":1,""taste"":0}","{""health"":0,""taste"":1}",,,9
,1608.0,,1608.0,500.0,stim,single-stim-button,134,371947,0.0-134.0,dietary_decision,True,0,,No,1608.0,decision,HoHo,-1.0,28.0,Lindt,"{""health"":-1,""taste"":1}","{""health"":0,""taste"":1}",,,9
,1768.0,,1768.0,500.0,stim,single-stim-button,135,374218,0.0-135.0,dietary_decision,True,0,,No,1768.0,decision,wheatcrisps,-1.0,29.0,Lindt,"{""health"":1,""taste"":0}","{""health"":0,""taste"":1}",,,9
,1598.0,,1598.0,500.0,stim,single-stim-button,136,376346,0.0-136.0,dietary_decision,True,0,,Yes,1598.0,decision,banana,1.0,30.0,Lindt,"{""health"":2,""taste"":2}","{""health"":0,""taste"":1}",,,9
,1775.0,,1775.0,500.0,stim,single-stim-button,137,378626,0.0-137.0,dietary_decision,True,0,,No,1775.0,decision,keeblerrainbow,-1.0,31.0,Lindt,"{""health"":-1,""taste"":0}","{""health"":0,""taste"":1}",,,9
,1697.0,,1697.0,500.0,stim,single-stim-button,138,380836,0.0-138.0,dietary_decision,True,0,,Yes,1697.0,decision,reddelicious,1.0,32.0,Lindt,"{""health"":2,""taste"":2}","{""health"":0,""taste"":1}",,,9
,2983.0,,2983.0,500.0,stim,single-stim-button,139,384322,0.0-139.0,dietary_decision,True,0,,Neutral,2983.0,decision,ffraspsorbet,0.0,33.0,Lindt,"{""health"":1,""taste"":1}","{""health"":0,""taste"":1}",,,9
,2033.0,,2033.0,500.0,stim,single-stim-button,140,386864,0.0-140.0,dietary_decision,True,0,,No,2033.0,decision,RiceKrispyTreat,-1.0,34.0,Lindt,"{""health"":0,""taste"":-1}","{""health"":0,""taste"":1}",,,9
,1640.0,,1640.0,500.0,stim,single-stim-button,141,389013,0.0-141.0,dietary_decision,True,0,,No,1640.0,decision,redgrapes,-1.0,35.0,Lindt,"{""health"":2,""taste"":2}","{""health"":0,""taste"":1}",,,9
,1674.0,,1674.0,500.0,stim,single-stim-button,142,391201,0.0-142.0,dietary_decision,True,0,,No,1674.0,decision,specialKbar,-1.0,36.0,Lindt,"{""health"":0,""taste"":0}","{""health"":0,""taste"":1}",,,9
,2038.0,,2038.0,500.0,stim,single-stim-button,143,393755,0.0-143.0,dietary_decision,True,0,,Neutral,2038.0,decision,blueberryyogart,0.0,37.0,Lindt,"{""health"":2,""taste"":1}","{""health"":0,""taste"":1}",,,9
,1509.0,,1509.0,500.0,stim,single-stim-button,144,395776,0.0-144.0,dietary_decision,True,0,,No,1509.0,decision,ChipsAhoy,-1.0,38.0,Lindt,"{""health"":-1,""taste"":0}","{""health"":0,""taste"":1}",,,9
,1651.0,,1651.0,500.0,stim,single-stim-button,145,397933,0.0-145.0,dietary_decision,True,0,,Yes,1651.0,decision,cherryicecream,1.0,39.0,Lindt,"{""health"":-1,""taste"":1}","{""health"":0,""taste"":1}",,,9
,3155.0,,3155.0,500.0,stim,single-stim-button,146,401599,0.0-146.0,dietary_decision,True,0,,No,3155.0,decision,wwmuffin,-1.0,40.0,Lindt,"{""health"":-1,""taste"":0}","{""health"":0,""taste"":1}",,,9
,2031.0,,2031.0,500.0,stim,single-stim-button,147,404145,0.0-147.0,dietary_decision,True,0,,Neutral,2031.0,decision,raisins,0.0,41.0,Lindt,"{""health"":1,""taste"":0}","{""health"":0,""taste"":1}",,,9
,3064.0,,3064.0,500.0,stim,single-stim-button,148,407721,0.0-148.0,dietary_decision,True,0,,No,3064.0,decision,Reeses,-1.0,42.0,Lindt,"{""health"":-1,""taste"":0}","{""health"":0,""taste"":1}",,,9
,2038.0,,2038.0,500.0,stim,single-stim-button,149,410274,0.0-149.0,dietary_decision,True,0,,No,2038.0,decision,carrots,-1.0,43.0,Lindt,"{""health"":1,""taste"":1}","{""health"":0,""taste"":1}",,,9
,1890.0,,1890.0,500.0,stim,single-stim-button,150,412670,0.0-150.0,dietary_decision,True,0,,Neutral,1890.0,decision,cookies,0.0,44.0,Lindt,"{""health"":0,""taste"":1}","{""health"":0,""taste"":1}",,,9
,1740.0,,1740.0,500.0,stim,single-stim-button,151,414922,0.0-151.0,dietary_decision,True,0,,Yes,1740.0,decision,orangejello,1.0,45.0,Lindt,"{""health"":0,""taste"":1}","{""health"":0,""taste"":1}",,,9
,1614.0,,1614.0,500.0,stim,single-stim-button,152,417052,0.0-152.0,dietary_decision,True,0,,Neutral,1614.0,decision,uTwix,0.0,46.0,Lindt,"{""health"":-1,""taste"":1}","{""health"":0,""taste"":1}",,,9
,1744.0,,1744.0,500.0,stim,single-stim-button,153,419303,0.0-153.0,dietary_decision,True,0,,No,1744.0,decision,grannysmith,-1.0,47.0,Lindt,"{""health"":2,""taste"":1}","{""health"":0,""taste"":1}",,,9
,2489.0,,2489.0,500.0,stim,single-stim-button,154,422300,0.0-154.0,dietary_decision,True,0,,No,2489.0,decision,FlamingCheetos,-1.0,48.0,Lindt,"{""health"":-1,""taste"":0}","{""health"":0,""taste"":1}",,,9
