"text","rt","key_press","block_duration","timing_post_trial","trial_id","trial_type","trial_index","time_elapsed","internal_node_id","exp_id","full_screen","focus_shifts","view_history","mouse_click","stim_duration","exp_stage","stim","coded_response","trial_num","reference","stim_rating","reference_rating","responses","credit_var"
"<div class = centerbox><p class = ""center-block-text"">Welcome to the experiment. This task will take around 15 minutes. Press <strong>enter</strong> to begin.</p></div>","2713","13","2713","0","instruction","poldrack-text","0","2715","0.0-0.0-0.0","dietary_decision","true","3","","","","","","","","","","","",""
"","11534","","","","instruction","poldrack-instructions","1","14250","0.0-0.0-1.0","dietary_decision","true","0","[{""page_index"":0,""viewing_time"":11534}]","","","","","","","","","","",""
"<div class = centerbox><p class = ""center-block-text"">In the next block of trials, rate the healthiness of each food item without regard for its taste. Press <strong>enter</strong> to begin.</p></div>","4400","13","4400","500","start_health","poldrack-text","2","19661","0.0-1.0","dietary_decision","true","0","","","","","","","","","","","",""
"","-1","","4000","500","stim","single-stim-button","3","24178","0.0-2.0","dietary_decision","true","0","","-1","4000","health_rating","RiceKrispyTreat","NaN","0","","","","",""
"","2144","","2144","500","stim","single-stim-button","4","26832","0.0-3.0","dietary_decision","true","0","","Neutral","2144","health_rating","KitKat","0","1","","","","",""
"","1988","","1988","500","stim","single-stim-button","5","29323","0.0-4.0","dietary_decision","true","0","","Neutral","1988","health_rating","slimfastC","0","2","","","","",""
"","1988","","1988","500","stim","single-stim-button","6","31821","0.0-5.0","dietary_decision","true","0","","Neutral","1988","health_rating","slimfastV","0","3","","","","",""
"","2280","","2280","500","stim","single-stim-button","7","34610","0.0-6.0","dietary_decision","true","0","","Healthy","2280","health_rating","wheatcrisps","1","4","","","","",""
"","3048","","3048","500","stim","single-stim-button","8","38169","0.0-7.0","dietary_decision","true","0","","Healthy","3048","health_rating","cellery","1","5","","","","",""
"","-1","","4000","500","stim","single-stim-button","9","42686","0.0-8.0","dietary_decision","true","0","","-1","4000","health_rating","brocollincauliflower","NaN","6","","","","",""
"","2484","","2484","500","stim","single-stim-button","10","45671","0.0-9.0","dietary_decision","true","0","","Healthy","2484","health_rating","FamousAmos","1","7","","","","",""
"","2251","","2251","500","stim","single-stim-button","11","48431","0.0-10.0","dietary_decision","true","0","","Very_Healthy","2251","health_rating","redgrapes","2","8","","","","",""
"","3793","","3793","500","stim","single-stim-button","12","52730","0.0-11.0","dietary_decision","true","0","","Healthy","3793","health_rating","carrots","1","9","","","","",""
"","-1","","4000","500","stim","single-stim-button","13","57235","0.0-12.0","dietary_decision","true","0","","-1","4000","health_rating","butterfinger","NaN","10","","","","",""
"","2095","","2095","500","stim","single-stim-button","14","59838","0.0-13.0","dietary_decision","true","0","","Neutral","2095","health_rating","cookiencream","0","11","","","","",""
"","1486","","1486","500","stim","single-stim-button","15","61829","0.0-14.0","dietary_decision","true","0","","Neutral","1486","health_rating","Lindt","0","12","","","","",""
"","1426","","1426","500","stim","single-stim-button","16","63757","0.0-15.0","dietary_decision","true","0","","Healthy","1426","health_rating","strawberries","1","13","","","","",""
"","1959","","1959","500","stim","single-stim-button","17","66228","0.0-16.0","dietary_decision","true","0","","Neutral","1959","health_rating","sbcrackers","0","14","","","","",""
"","3172","","3172","500","stim","single-stim-button","18","69902","0.0-17.0","dietary_decision","true","0","","Very_Healthy","3172","health_rating","banana","2","15","","","","",""
"","2282","","2282","500","stim","single-stim-button","19","72696","0.0-18.0","dietary_decision","true","0","","Neutral","2282","health_rating","icecreamsandwich","0","16","","","","",""
"","2402","","2402","500","stim","single-stim-button","20","75610","0.0-19.0","dietary_decision","true","0","","Very_Healthy","2402","health_rating","orange","2","17","","","","",""
"","-1","","4000","500","stim","single-stim-button","21","80129","0.0-20.0","dietary_decision","true","0","","-1","4000","health_rating","cherryicecream","NaN","18","","","","",""
"","2270","","2270","500","stim","single-stim-button","22","82900","0.0-21.0","dietary_decision","true","0","","Unhealthy","2270","health_rating","Reeses","-1","19","","","","",""
"","2472","","2472","500","stim","single-stim-button","23","85875","0.0-22.0","dietary_decision","true","0","","Neutral","2472","health_rating","ffraspsorbet","0","20","","","","",""
"","1246","","1246","500","stim","single-stim-button","24","87622","0.0-23.0","dietary_decision","true","0","","Very_Healthy","1246","health_rating","reddelicious","2","21","","","","",""
"","1684","","1684","500","stim","single-stim-button","25","89809","0.0-24.0","dietary_decision","true","0","","Unhealthy","1684","health_rating","laysclassic","-1","22","","","","",""
"","2432","","2432","500","stim","single-stim-button","26","92744","0.0-25.0","dietary_decision","true","0","","Neutral","2432","health_rating","strussel","0","23","","","","",""
"","-1","","4000","500","stim","single-stim-button","27","97248","0.0-26.0","dietary_decision","true","0","","-1","4000","health_rating","cranberries","NaN","24","","","","",""
"","1705","","1705","500","stim","single-stim-button","28","99464","0.0-27.0","dietary_decision","true","0","","Unhealthy","1705","health_rating","Oreos","-1","25","","","","",""
"","1267","","1267","500","stim","single-stim-button","29","101245","0.0-28.0","dietary_decision","true","0","","Very_Healthy","1267","health_rating","grannysmith","2","26","","","","",""
"","2678","","2678","500","stim","single-stim-button","30","104426","0.0-29.0","dietary_decision","true","0","","Unhealthy","2678","health_rating","HoHo","-1","27","","","","",""
"","2252","","2252","500","stim","single-stim-button","31","107190","0.0-30.0","dietary_decision","true","0","","Healthy","2252","health_rating","raisins","1","28","","","","",""
"","2608","","2608","500","stim","single-stim-button","32","110308","0.0-31.0","dietary_decision","true","0","","Neutral","2608","health_rating","sbdietbar","0","29","","","","",""
"","3470","","3470","500","stim","single-stim-button","33","114292","0.0-32.0","dietary_decision","true","0","","Unhealthy","3470","health_rating","frozenyogart","-1","30","","","","",""
"","2989","","2989","500","stim","single-stim-button","34","117782","0.0-33.0","dietary_decision","true","0","","Unhealthy","2989","health_rating","ChipsAhoy","-1","31","","","","",""
"","3863","","3863","500","stim","single-stim-button","35","122145","0.0-34.0","dietary_decision","true","0","","Unhealthy","3863","health_rating","keeblerfudgestripes","-1","32","","","","",""
"","-1","","4000","500","stim","single-stim-button","36","126672","0.0-35.0","dietary_decision","true","0","","-1","4000","health_rating","Ghiradelli","NaN","33","","","","",""
"","1284","","1284","500","stim","single-stim-button","37","128471","0.0-36.0","dietary_decision","true","0","","Healthy","1284","health_rating","whitegrapes","1","34","","","","",""
"","3403","","3403","500","stim","single-stim-button","38","132383","0.0-37.0","dietary_decision","true","0","","Neutral","3403","health_rating","keeblerrainbow","0","35","","","","",""
"","3427","","3427","500","stim","single-stim-button","39","136326","0.0-38.0","dietary_decision","true","0","","Unhealthy","3427","health_rating","Doritosranch","-1","36","","","","",""
"","3790","","3790","500","stim","single-stim-button","40","140618","0.0-39.0","dietary_decision","true","0","","Unhealthy","3790","health_rating","MrsFields","-1","37","","","","",""
"","2807","","2807","500","stim","single-stim-button","41","143940","0.0-40.0","dietary_decision","true","0","","Neutral","2807","health_rating","wwmuffin","0","38","","","","",""
"","2378","","2378","500","stim","single-stim-button","42","146826","0.0-41.0","dietary_decision","true","0","","Neutral","2378","health_rating","ruffles","0","39","","","","",""
"","2463","","2463","500","stim","single-stim-button","43","149794","0.0-42.0","dietary_decision","true","0","","Unhealthy","2463","health_rating","uTwix","-1","40","","","","",""
"","-1","","4000","500","stim","single-stim-button","44","154303","0.0-43.0","dietary_decision","true","0","","-1","4000","health_rating","cookies","NaN","41","","","","",""
"","3244","","3244","500","stim","single-stim-button","45","158049","0.0-44.0","dietary_decision","true","0","","Unhealthy","3244","health_rating","uToberlorone","-1","42","","","","",""
"","2305","","2305","500","stim","single-stim-button","46","160870","0.0-45.0","dietary_decision","true","0","","Neutral","2305","health_rating","wwbrownie","0","43","","","","",""
"","-1","","4000","500","stim","single-stim-button","47","165373","0.0-46.0","dietary_decision","true","0","","-1","4000","health_rating","blueberryyogart","NaN","44","","","","",""
"","3224","","3224","500","stim","single-stim-button","48","169103","0.0-47.0","dietary_decision","true","0","","Very_Unhealthy","3224","health_rating","FlamingCheetos","-2","45","","","","",""
"","3755","","3755","500","stim","single-stim-button","49","173361","0.0-48.0","dietary_decision","true","0","","Neutral","3755","health_rating","specialKbar","0","46","","","","",""
"","-1","","4000","500","stim","single-stim-button","50","177872","0.0-49.0","dietary_decision","true","0","","-1","4000","health_rating","mixedyogart","NaN","47","","","","",""
"","3344","","3344","500","stim","single-stim-button","51","181721","0.0-50.0","dietary_decision","true","0","","Unhealthy","3344","health_rating","100Grand","-1","48","","","","",""
"","3250","","3250","500","stim","single-stim-button","52","185481","0.0-51.0","dietary_decision","true","0","","Very_Unhealthy","3250","health_rating","orangejello","-2","49","","","","",""
"<div class = centerbox><p class = ""center-block-text"">In the next block of trials, rate the tastiness of each food item without regard for its healthiness. Press <strong>enter</strong> to begin.</p></div>","3702","13","3702","500","start_taste","poldrack-text","53","189694","0.0-52.0","dietary_decision","true","0","","","","","","","","","","","",""
"","1679","","1679","500","stim","single-stim-button","54","191878","0.0-53.0","dietary_decision","true","0","","Good","1679","taste_rating","blueberryyogart","1","0","","","","",""
"","1975","","1975","500","stim","single-stim-button","55","194370","0.0-54.0","dietary_decision","true","0","","Bad","1975","taste_rating","sbdietbar","-1","1","","","","",""
"","1378","","1378","500","stim","single-stim-button","56","196256","0.0-55.0","dietary_decision","true","0","","Neutral","1378","taste_rating","cranberries","0","2","","","","",""
"","2294","","2294","500","stim","single-stim-button","57","199057","0.0-56.0","dietary_decision","true","0","","Neutral","2294","taste_rating","orange","0","3","","","","",""
"","1039","","1039","500","stim","single-stim-button","58","200606","0.0-57.0","dietary_decision","true","0","","Good","1039","taste_rating","grannysmith","1","4","","","","",""
"","2278","","2278","500","stim","single-stim-button","59","203399","0.0-58.0","dietary_decision","true","0","","Good","2278","taste_rating","keeblerfudgestripes","1","5","","","","",""
"","1751","","1751","500","stim","single-stim-button","60","205659","0.0-59.0","dietary_decision","true","0","","Neutral","1751","taste_rating","Lindt","0","6","","","","",""
"","2306","","2306","500","stim","single-stim-button","61","208473","0.0-60.0","dietary_decision","true","0","","Neutral","2306","taste_rating","wheatcrisps","0","7","","","","",""
"","1872","","1872","500","stim","single-stim-button","62","210860","0.0-61.0","dietary_decision","true","0","","Neutral","1872","taste_rating","specialKbar","0","8","","","","",""
"","2498","","2498","500","stim","single-stim-button","63","213864","0.0-62.0","dietary_decision","true","0","","Neutral","2498","taste_rating","cellery","0","9","","","","",""
"","1786","","1786","500","stim","single-stim-button","64","216158","0.0-63.0","dietary_decision","true","0","","Very_Bad","1786","taste_rating","brocollincauliflower","-2","10","","","","",""
"","1229","","1229","500","stim","single-stim-button","65","217890","0.0-64.0","dietary_decision","true","0","","Good","1229","taste_rating","whitegrapes","1","11","","","","",""
"","1757","","1757","500","stim","single-stim-button","66","220148","0.0-65.0","dietary_decision","true","0","","Neutral","1757","taste_rating","cherryicecream","0","12","","","","",""
"","1573","","1573","500","stim","single-stim-button","67","222224","0.0-66.0","dietary_decision","true","0","","Neutral","1573","taste_rating","HoHo","0","13","","","","",""
"","1541","","1541","500","stim","single-stim-button","68","224272","0.0-67.0","dietary_decision","true","0","","Good","1541","taste_rating","uTwix","1","14","","","","",""
"","2198","","2198","500","stim","single-stim-button","69","226982","0.0-68.0","dietary_decision","true","0","","Neutral","2198","taste_rating","ruffles","0","15","","","","",""
"","1499","","1499","500","stim","single-stim-button","70","228988","0.0-69.0","dietary_decision","true","0","","Neutral","1499","taste_rating","Reeses","0","16","","","","",""
"","1853","","1853","500","stim","single-stim-button","71","231352","0.0-70.0","dietary_decision","true","0","","Neutral","1853","taste_rating","Ghiradelli","0","17","","","","",""
"","2582","","2582","500","stim","single-stim-button","72","234435","0.0-71.0","dietary_decision","true","0","","Bad","2582","taste_rating","butterfinger","-1","18","","","","",""
"","1514","","1514","500","stim","single-stim-button","73","236455","0.0-72.0","dietary_decision","true","0","","Neutral","1514","taste_rating","wwmuffin","0","19","","","","",""
"","1873","","1873","500","stim","single-stim-button","74","238828","0.0-73.0","dietary_decision","true","0","","Bad","1873","taste_rating","MrsFields","-1","20","","","","",""
"","1757","","1757","500","stim","single-stim-button","75","241086","0.0-74.0","dietary_decision","true","0","","Bad","1757","taste_rating","strawberries","-1","21","","","","",""
"","1856","","1856","500","stim","single-stim-button","76","243442","0.0-75.0","dietary_decision","true","0","","Neutral","1856","taste_rating","icecreamsandwich","0","22","","","","",""
"","1454","","1454","500","stim","single-stim-button","77","245408","0.0-76.0","dietary_decision","true","0","","Neutral","1454","taste_rating","redgrapes","0","23","","","","",""
"","3260","","3260","500","stim","single-stim-button","78","249177","0.0-77.0","dietary_decision","true","0","","Neutral","3260","taste_rating","slimfastV","0","24","","","","",""
"","1916","","1916","500","stim","single-stim-button","79","251605","0.0-78.0","dietary_decision","true","0","","Bad","1916","taste_rating","strussel","-1","25","","","","",""
"","1843","","1843","500","stim","single-stim-button","80","253950","0.0-79.0","dietary_decision","true","0","","Bad","1843","taste_rating","FamousAmos","-1","26","","","","",""
"","1397","","1397","500","stim","single-stim-button","81","255863","0.0-80.0","dietary_decision","true","0","","Very_Good","1397","taste_rating","banana","2","27","","","","",""
"","1955","","1955","500","stim","single-stim-button","82","258319","0.0-81.0","dietary_decision","true","0","","Very_Good","1955","taste_rating","cookiencream","2","28","","","","",""
"","1713","","1713","500","stim","single-stim-button","83","260543","0.0-82.0","dietary_decision","true","0","","Neutral","1713","taste_rating","ffraspsorbet","0","29","","","","",""
"","1334","","1334","500","stim","single-stim-button","84","262392","0.0-83.0","dietary_decision","true","0","","Good","1334","taste_rating","reddelicious","1","30","","","","",""
"","2270","","2270","500","stim","single-stim-button","85","265166","0.0-84.0","dietary_decision","true","0","","Neutral","2270","taste_rating","mixedyogart","0","31","","","","",""
"","2014","","2014","500","stim","single-stim-button","86","267686","0.0-85.0","dietary_decision","true","0","","Neutral","2014","taste_rating","slimfastC","0","32","","","","",""
"","1190","","1190","500","stim","single-stim-button","87","269388","0.0-86.0","dietary_decision","true","0","","Neutral","1190","taste_rating","100Grand","0","33","","","","",""
"","1988","","1988","500","stim","single-stim-button","88","271880","0.0-87.0","dietary_decision","true","0","","Neutral","1988","taste_rating","frozenyogart","0","34","","","","",""
"","1927","","1927","500","stim","single-stim-button","89","274321","0.0-88.0","dietary_decision","true","0","","Bad","1927","taste_rating","sbcrackers","-1","35","","","","",""
"","1982","","1982","500","stim","single-stim-button","90","276806","0.0-89.0","dietary_decision","true","0","","Neutral","1982","taste_rating","raisins","0","36","","","","",""
"","1768","","1768","500","stim","single-stim-button","91","279080","0.0-90.0","dietary_decision","true","0","","Bad","1768","taste_rating","FlamingCheetos","-1","37","","","","",""
"","2362","","2362","500","stim","single-stim-button","92","281958","0.0-91.0","dietary_decision","true","0","","Neutral","2362","taste_rating","cookies","0","38","","","","",""
"","1249","","1249","500","stim","single-stim-button","93","283717","0.0-92.0","dietary_decision","true","0","","Neutral","1249","taste_rating","ChipsAhoy","0","39","","","","",""
"","2486","","2486","500","stim","single-stim-button","94","286708","0.0-93.0","dietary_decision","true","0","","Very_Good","2486","taste_rating","Oreos","2","40","","","","",""
"","2382","","2382","500","stim","single-stim-button","95","289592","0.0-94.0","dietary_decision","true","0","","Neutral","2382","taste_rating","orangejello","0","41","","","","",""
"","1911","","1911","500","stim","single-stim-button","96","292005","0.0-95.0","dietary_decision","true","0","","Very_Good","1911","taste_rating","KitKat","2","42","","","","",""
"","1279","","1279","500","stim","single-stim-button","97","293786","0.0-96.0","dietary_decision","true","0","","Good","1279","taste_rating","uToberlorone","1","43","","","","",""
"","2256","","2256","500","stim","single-stim-button","98","296545","0.0-97.0","dietary_decision","true","0","","Good","2256","taste_rating","Doritosranch","1","44","","","","",""
"","3036","","3036","500","stim","single-stim-button","99","300083","0.0-98.0","dietary_decision","true","0","","Neutral","3036","taste_rating","carrots","0","45","","","","",""
"","995","","995","500","stim","single-stim-button","100","301591","0.0-99.0","dietary_decision","true","0","","Neutral","995","taste_rating","keeblerrainbow","0","46","","","","",""
"","1552","","1552","500","stim","single-stim-button","101","303645","0.0-100.0","dietary_decision","true","0","","Bad","1552","taste_rating","RiceKrispyTreat","-1","47","","","","",""
"","2075","","2075","500","stim","single-stim-button","102","306221","0.0-101.0","dietary_decision","true","0","","Good","2075","taste_rating","laysclassic","1","48","","","","",""
"","1403","","1403","500","stim","single-stim-button","103","308128","0.0-102.0","dietary_decision","true","0","","Good","1403","taste_rating","wwbrownie","1","49","","","","",""
"","","","","","setup test","call-function","104","308677","0.0-104.0","dietary_decision","true","0","","","","","","","","","","","",""
"<div class = dd_centerbox><p class = ""block-text"">In the next block of trials you should choose whether you would rather eat the food shown on each trial OR the food shown below. You will select response from ""Strong No"", ""No"", ""Neutral"", ""Yes"" and ""Strong Yes"". ""No"" means that you would rather eat the food below, while ""Yes"" means you would rather eat the food displayed on that trial.</p><p class = block-text>Take these decisions seriously. Imagine that at the end of the experiment you had to eat the food you chose in one random decision.</p><p class = block-text>Press <strong>enter</strong> to begin.</p></div></div><div class = dd_referenceBox><img class = dd_Stim src = /static/experiments/dietary_decision/images/Lindt.bmp </img></div>","54200","13","54200","500","decision_text","poldrack-text","105","362878","0.0-105.0","dietary_decision","true","1","","","","","","","","","","","",""
"","3431","","3431","500","stim","single-stim-button","106","366825","0.0-106.0","dietary_decision","true","0","","Strong_Yes","3431","decision","KitKat","2","0","Lindt","{""health"":0,""taste"":2}","{""health"":0,""taste"":0}","",""
"","3193","","3193","500","stim","single-stim-button","107","370532","0.0-107.0","dietary_decision","true","0","","Neutral","3193","decision","cranberries","0","1","Lindt","{""health"":""NaN"",""taste"":0}","{""health"":0,""taste"":0}","",""
"","-1","","4000","500","stim","single-stim-button","108","375039","0.0-108.0","dietary_decision","true","0","","-1","4000","decision","strawberries","-3","2","Lindt","{""health"":1,""taste"":-1}","{""health"":0,""taste"":0}","",""
"","2002","","2002","500","stim","single-stim-button","109","377554","0.0-109.0","dietary_decision","true","0","","Neutral","2002","decision","cherryicecream","0","3","Lindt","{""health"":""NaN"",""taste"":0}","{""health"":0,""taste"":0}","",""
"","3001","","3001","500","stim","single-stim-button","110","381067","0.0-110.0","dietary_decision","true","0","","Neutral","3001","decision","uTwix","0","4","Lindt","{""health"":-1,""taste"":1}","{""health"":0,""taste"":0}","",""
"","1365","","1365","500","stim","single-stim-button","111","382945","0.0-111.0","dietary_decision","true","0","","Neutral","1365","decision","Ghiradelli","0","5","Lindt","{""health"":""NaN"",""taste"":0}","{""health"":0,""taste"":0}","",""
"","1706","","1706","500","stim","single-stim-button","112","385162","0.0-112.0","dietary_decision","true","0","","Yes","1706","decision","reddelicious","1","6","Lindt","{""health"":2,""taste"":1}","{""health"":0,""taste"":0}","",""
"","2020","","2020","500","stim","single-stim-button","113","387694","0.0-113.0","dietary_decision","true","0","","No","2020","decision","keeblerfudgestripes","-1","7","Lindt","{""health"":-1,""taste"":1}","{""health"":0,""taste"":0}","",""
"","1583","","1583","500","stim","single-stim-button","114","389778","0.0-114.0","dietary_decision","true","0","","No","1583","decision","ChipsAhoy","-1","8","Lindt","{""health"":-1,""taste"":0}","{""health"":0,""taste"":0}","",""
"","1721","","1721","500","stim","single-stim-button","115","392011","0.0-115.0","dietary_decision","true","0","","Neutral","1721","decision","blueberryyogart","0","9","Lindt","{""health"":""NaN"",""taste"":1}","{""health"":0,""taste"":0}","",""
"","1753","","1753","500","stim","single-stim-button","116","394273","0.0-116.0","dietary_decision","true","0","","No","1753","decision","HoHo","-1","10","Lindt","{""health"":-1,""taste"":0}","{""health"":0,""taste"":0}","",""
"","3475","","3475","500","stim","single-stim-button","117","398261","0.0-117.0","dietary_decision","true","0","","No","3475","decision","raisins","-1","11","Lindt","{""health"":1,""taste"":0}","{""health"":0,""taste"":0}","",""
"","1282","","1282","500","stim","single-stim-button","118","400045","0.0-118.0","dietary_decision","true","0","","Yes","1282","decision","laysclassic","1","12","Lindt","{""health"":-1,""taste"":1}","{""health"":0,""taste"":0}","",""
"","1364","","1364","500","stim","single-stim-button","119","401917","0.0-119.0","dietary_decision","true","0","","No","1364","decision","MrsFields","-1","13","Lindt","{""health"":-1,""taste"":-1}","{""health"":0,""taste"":0}","",""
"","1443","","1443","500","stim","single-stim-button","120","403866","0.0-120.0","dietary_decision","true","0","","Neutral","1443","decision","cellery","0","14","Lindt","{""health"":1,""taste"":0}","{""health"":0,""taste"":0}","",""
"","1946","","1946","500","stim","single-stim-button","121","406323","0.0-121.0","dietary_decision","true","0","","Neutral","1946","decision","wwmuffin","0","15","Lindt","{""health"":0,""taste"":0}","{""health"":0,""taste"":0}","",""
"","2185","","2185","500","stim","single-stim-button","122","409019","0.0-122.0","dietary_decision","true","0","","Yes","2185","decision","Doritosranch","1","16","Lindt","{""health"":-1,""taste"":1}","{""health"":0,""taste"":0}","",""
"","2029","","2029","500","stim","single-stim-button","123","411552","0.0-123.0","dietary_decision","true","0","","Neutral","2029","decision","butterfinger","0","17","Lindt","{""health"":""NaN"",""taste"":-1}","{""health"":0,""taste"":0}","",""
"","1252","","1252","500","stim","single-stim-button","124","413312","0.0-124.0","dietary_decision","true","0","","No","1252","decision","RiceKrispyTreat","-1","18","Lindt","{""health"":""NaN"",""taste"":-1}","{""health"":0,""taste"":0}","",""
"","1446","","1446","500","stim","single-stim-button","125","415266","0.0-125.0","dietary_decision","true","0","","Strong_No","1446","decision","brocollincauliflower","-2","19","Lindt","{""health"":""NaN"",""taste"":-2}","{""health"":0,""taste"":0}","",""
"","1390","","1390","500","stim","single-stim-button","126","417159","0.0-126.0","dietary_decision","true","0","","No","1390","decision","cookies","-1","20","Lindt","{""health"":""NaN"",""taste"":0}","{""health"":0,""taste"":0}","",""
"","1107","","1107","500","stim","single-stim-button","127","418778","0.0-127.0","dietary_decision","true","0","","No","1107","decision","FamousAmos","-1","21","Lindt","{""health"":1,""taste"":-1}","{""health"":0,""taste"":0}","",""
"","849","","849","500","stim","single-stim-button","128","420129","0.0-128.0","dietary_decision","true","0","","No","849","decision","slimfastC","-1","22","Lindt","{""health"":0,""taste"":0}","{""health"":0,""taste"":0}","",""
"","1296","","1296","500","stim","single-stim-button","129","421937","0.0-129.0","dietary_decision","true","0","","Neutral","1296","decision","icecreamsandwich","0","23","Lindt","{""health"":0,""taste"":0}","{""health"":0,""taste"":0}","",""
"","1424","","1424","500","stim","single-stim-button","130","423872","0.0-130.0","dietary_decision","true","0","","Neutral","1424","decision","mixedyogart","0","24","Lindt","{""health"":""NaN"",""taste"":0}","{""health"":0,""taste"":0}","",""
"","1137","","1137","500","stim","single-stim-button","131","425520","0.0-131.0","dietary_decision","true","0","","Neutral","1137","decision","redgrapes","0","25","Lindt","{""health"":2,""taste"":0}","{""health"":0,""taste"":0}","",""
"","1286","","1286","500","stim","single-stim-button","132","427320","0.0-132.0","dietary_decision","true","0","","Neutral","1286","decision","Reeses","0","26","Lindt","{""health"":-1,""taste"":0}","{""health"":0,""taste"":0}","",""
"","1732","","1732","500","stim","single-stim-button","133","429559","0.0-133.0","dietary_decision","true","0","","No","1732","decision","ffraspsorbet","-1","27","Lindt","{""health"":0,""taste"":0}","{""health"":0,""taste"":0}","",""
"","1779","","1779","500","stim","single-stim-button","134","431839","0.0-134.0","dietary_decision","true","0","","Strong_Yes","1779","decision","banana","2","28","Lindt","{""health"":2,""taste"":2}","{""health"":0,""taste"":0}","",""
"","3021","","3021","500","stim","single-stim-button","135","435364","0.0-135.0","dietary_decision","true","0","","No","3021","decision","wheatcrisps","-1","29","Lindt","{""health"":1,""taste"":0}","{""health"":0,""taste"":0}","",""
"","1462","","1462","500","stim","single-stim-button","136","437340","0.0-136.0","dietary_decision","true","0","","Neutral","1462","decision","orangejello","0","30","Lindt","{""health"":-2,""taste"":0}","{""health"":0,""taste"":0}","",""
"","1436","","1436","500","stim","single-stim-button","137","439283","0.0-137.0","dietary_decision","true","0","","Yes","1436","decision","whitegrapes","1","31","Lindt","{""health"":1,""taste"":1}","{""health"":0,""taste"":0}","",""
"","936","","936","500","stim","single-stim-button","138","440732","0.0-138.0","dietary_decision","true","0","","Yes","936","decision","grannysmith","1","32","Lindt","{""health"":2,""taste"":1}","{""health"":0,""taste"":0}","",""
"","1673","","1673","500","stim","single-stim-button","139","442914","0.0-139.0","dietary_decision","true","0","","No","1673","decision","100Grand","-1","33","Lindt","{""health"":-1,""taste"":0}","{""health"":0,""taste"":0}","",""
"","723","","723","500","stim","single-stim-button","140","444146","0.0-140.0","dietary_decision","true","0","","No","723","decision","sbdietbar","-1","34","Lindt","{""health"":0,""taste"":-1}","{""health"":0,""taste"":0}","",""
"","2088","","2088","500","stim","single-stim-button","141","446749","0.0-141.0","dietary_decision","true","0","","Neutral","2088","decision","wwbrownie","0","35","Lindt","{""health"":0,""taste"":1}","{""health"":0,""taste"":0}","",""
"","1149","","1149","500","stim","single-stim-button","142","448410","0.0-142.0","dietary_decision","true","0","","No","1149","decision","sbcrackers","-1","36","Lindt","{""health"":0,""taste"":-1}","{""health"":0,""taste"":0}","",""
"","1971","","1971","500","stim","single-stim-button","143","450888","0.0-143.0","dietary_decision","true","0","","No","1971","decision","carrots","-1","37","Lindt","{""health"":1,""taste"":0}","{""health"":0,""taste"":0}","",""
"","1798","","1798","500","stim","single-stim-button","144","453196","0.0-144.0","dietary_decision","true","0","","Yes","1798","decision","Oreos","1","38","Lindt","{""health"":-1,""taste"":2}","{""health"":0,""taste"":0}","",""
"","1194","","1194","500","stim","single-stim-button","145","454898","0.0-145.0","dietary_decision","true","0","","No","1194","decision","keeblerrainbow","-1","39","Lindt","{""health"":0,""taste"":0}","{""health"":0,""taste"":0}","",""
"","1947","","1947","500","stim","single-stim-button","146","457353","0.0-146.0","dietary_decision","true","0","","Strong_No","1947","decision","specialKbar","-2","40","Lindt","{""health"":0,""taste"":0}","{""health"":0,""taste"":0}","",""
"","1357","","1357","500","stim","single-stim-button","147","459217","0.0-147.0","dietary_decision","true","0","","Strong_No","1357","decision","slimfastV","-2","41","Lindt","{""health"":0,""taste"":0}","{""health"":0,""taste"":0}","",""
"","1534","","1534","500","stim","single-stim-button","148","461258","0.0-148.0","dietary_decision","true","0","","Strong_Yes","1534","decision","cookiencream","2","42","Lindt","{""health"":0,""taste"":2}","{""health"":0,""taste"":0}","",""
"","1305","","1305","500","stim","single-stim-button","149","463066","0.0-149.0","dietary_decision","true","0","","No","1305","decision","frozenyogart","-1","43","Lindt","{""health"":-1,""taste"":0}","{""health"":0,""taste"":0}","",""
"","2942","","2942","500","stim","single-stim-button","150","466514","0.0-150.0","dietary_decision","true","0","","No","2942","decision","ruffles","-1","44","Lindt","{""health"":0,""taste"":0}","{""health"":0,""taste"":0}","",""
"","1227","","1227","500","stim","single-stim-button","151","468252","0.0-151.0","dietary_decision","true","0","","Strong_No","1227","decision","FlamingCheetos","-2","45","Lindt","{""health"":-2,""taste"":-1}","{""health"":0,""taste"":0}","",""
"","1993","","1993","500","stim","single-stim-button","152","470757","0.0-152.0","dietary_decision","true","0","","No","1993","decision","orange","-1","46","Lindt","{""health"":2,""taste"":0}","{""health"":0,""taste"":0}","",""
"","860","","860","500","stim","single-stim-button","153","472122","0.0-153.0","dietary_decision","true","0","","No","860","decision","strussel","-1","47","Lindt","{""health"":0,""taste"":-1}","{""health"":0,""taste"":0}","",""
"","1207","","1207","500","stim","single-stim-button","154","473831","0.0-154.0","dietary_decision","true","0","","Yes","1207","decision","uToberlorone","1","48","Lindt","{""health"":-1,""taste"":1}","{""health"":0,""taste"":0}","",""
"","214537","","","","post task questions","survey-text","155","688874","0.0-155.0","dietary_decision","true","3","","","","","","","","","","","{""Q0"":""Well you got an analysis on my eating preferences, choices and what I consider to be healthy."",""Q1"":""A timer would have been nice.""}",""
"<div class = centerbox><p class = ""center-block-text"">Thanks for completing this task!</p><p class = ""center-block-text"">Press <strong>enter</strong> to continue.</p></div>","1721","13","1721","0","end","poldrack-text","156","691599","0.0-156.0","dietary_decision","true","0","","","","","","","","","","","","true"
