"text","rt","key_press","block_duration","timing_post_trial","trial_id","trial_type","trial_index","time_elapsed","internal_node_id","exp_id","full_screen","focus_shifts","view_history","mouse_click","stim_duration","exp_stage","stim","coded_response","trial_num","reference","stim_rating","reference_rating","responses","credit_var"
"<div class = centerbox><p class = ""center-block-text"">Welcome to the experiment. This task will take around 15 minutes. Press <strong>enter</strong> to begin.</p></div>","73191","13","73191","0","instruction","poldrack-text","0","73194","0.0-0.0-0.0","dietary_decision","true","2","","","","","","","","","","","",""
"","9982","","","","instruction","poldrack-instructions","1","83178","0.0-0.0-1.0","dietary_decision","true","1","[{""page_index"":0,""viewing_time"":9981}]","","","","","","","","","","",""
"<div class = centerbox><p class = ""center-block-text"">In the next block of trials, rate the healthiness of each food item without regard for its taste. Press <strong>enter</strong> to begin.</p></div>","2563","13","2563","500","start_health","poldrack-text","2","86753","0.0-1.0","dietary_decision","true","0","","","","","","","","","","","",""
"","-1","","4000","500","stim","single-stim-button","3","91265","0.0-2.0","dietary_decision","true","0","","-1","4000","health_rating","Ghiradelli","NaN","0","","","","",""
"","2005","","2005","500","stim","single-stim-button","4","93781","0.0-3.0","dietary_decision","true","0","","Neutral","2005","health_rating","icecreamsandwich","0","1","","","","",""
"","985","","985","500","stim","single-stim-button","5","95281","0.0-4.0","dietary_decision","true","0","","Healthy","985","health_rating","whitegrapes","1","2","","","","",""
"","1870","","1870","500","stim","single-stim-button","6","97660","0.0-5.0","dietary_decision","true","0","","Unhealthy","1870","health_rating","ChipsAhoy","-1","3","","","","",""
"","2450","","2450","500","stim","single-stim-button","7","100619","0.0-6.0","dietary_decision","true","0","","Healthy","2450","health_rating","reddelicious","1","4","","","","",""
"","2043","","2043","500","stim","single-stim-button","8","103173","0.0-7.0","dietary_decision","true","0","","Unhealthy","2043","health_rating","Doritosranch","-1","5","","","","",""
"","1392","","1392","500","stim","single-stim-button","9","105080","0.0-8.0","dietary_decision","true","0","","Neutral","1392","health_rating","raisins","0","6","","","","",""
"","1329","","1329","500","stim","single-stim-button","10","106910","0.0-9.0","dietary_decision","true","0","","Unhealthy","1329","health_rating","Oreos","-1","7","","","","",""
"","989","","989","500","stim","single-stim-button","11","108401","0.0-10.0","dietary_decision","true","0","","Unhealthy","989","health_rating","cookiencream","-1","8","","","","",""
"","969","","969","500","stim","single-stim-button","12","109883","0.0-11.0","dietary_decision","true","0","","Unhealthy","969","health_rating","wwbrownie","-1","9","","","","",""
"","1813","","1813","500","stim","single-stim-button","13","112209","0.0-12.0","dietary_decision","true","0","","Healthy","1813","health_rating","strawberries","1","10","","","","",""
"","1047","","1047","500","stim","single-stim-button","14","113768","0.0-13.0","dietary_decision","true","0","","Unhealthy","1047","health_rating","strussel","-1","11","","","","",""
"","1470","","1470","500","stim","single-stim-button","15","115753","0.0-14.0","dietary_decision","true","0","","Neutral","1470","health_rating","MrsFields","0","12","","","","",""
"","1064","","1064","500","stim","single-stim-button","16","117328","0.0-15.0","dietary_decision","true","0","","Unhealthy","1064","health_rating","laysclassic","-1","13","","","","",""
"","1161","","1161","500","stim","single-stim-button","17","118998","0.0-16.0","dietary_decision","true","0","","Unhealthy","1161","health_rating","redgrapes","-1","14","","","","",""
"","2094","","2094","500","stim","single-stim-button","18","121606","0.0-17.0","dietary_decision","true","0","","Unhealthy","2094","health_rating","HoHo","-1","15","","","","",""
"","1170","","1170","500","stim","single-stim-button","19","123283","0.0-18.0","dietary_decision","true","0","","Unhealthy","1170","health_rating","frozenyogart","-1","16","","","","",""
"","1622","","1622","500","stim","single-stim-button","20","125421","0.0-19.0","dietary_decision","true","0","","Unhealthy","1622","health_rating","orangejello","-1","17","","","","",""
"","2296","","2296","500","stim","single-stim-button","21","128231","0.0-20.0","dietary_decision","true","0","","Unhealthy","2296","health_rating","KitKat","-1","18","","","","",""
"","847","","847","500","stim","single-stim-button","22","129583","0.0-21.0","dietary_decision","true","0","","Unhealthy","847","health_rating","sbcrackers","-1","19","","","","",""
"","1261","","1261","500","stim","single-stim-button","23","131358","0.0-22.0","dietary_decision","true","0","","Neutral","1261","health_rating","Lindt","0","20","","","","",""
"","593","","593","500","stim","single-stim-button","24","132457","0.0-23.0","dietary_decision","true","0","","Neutral","593","health_rating","butterfinger","0","21","","","","",""
"","565","","565","500","stim","single-stim-button","25","133535","0.0-24.0","dietary_decision","true","0","","Neutral","565","health_rating","blueberryyogart","0","22","","","","",""
"","583","","583","500","stim","single-stim-button","26","134631","0.0-25.0","dietary_decision","true","0","","Neutral","583","health_rating","carrots","0","23","","","","",""
"","586","","586","500","stim","single-stim-button","27","135720","0.0-26.0","dietary_decision","true","0","","Neutral","586","health_rating","orange","0","24","","","","",""
"","486","","486","500","stim","single-stim-button","28","136718","0.0-27.0","dietary_decision","true","0","","Neutral","486","health_rating","cherryicecream","0","25","","","","",""
"","314","","314","500","stim","single-stim-button","29","137544","0.0-28.0","dietary_decision","true","0","","Neutral","314","health_rating","keeblerrainbow","0","26","","","","",""
"","551","","551","500","stim","single-stim-button","30","138597","0.0-29.0","dietary_decision","true","0","","Neutral","551","health_rating","cookies","0","27","","","","",""
"","390","","390","500","stim","single-stim-button","31","139489","0.0-30.0","dietary_decision","true","0","","Neutral","390","health_rating","cranberries","0","28","","","","",""
"","335","","335","500","stim","single-stim-button","32","140325","0.0-31.0","dietary_decision","true","0","","Neutral","335","health_rating","ruffles","0","29","","","","",""
"","440","","440","500","stim","single-stim-button","33","141275","0.0-32.0","dietary_decision","true","0","","Neutral","440","health_rating","banana","0","30","","","","",""
"","365","","365","500","stim","single-stim-button","34","142150","0.0-33.0","dietary_decision","true","0","","Neutral","365","health_rating","sbdietbar","0","31","","","","",""
"","391","","391","500","stim","single-stim-button","35","143054","0.0-34.0","dietary_decision","true","0","","Neutral","391","health_rating","slimfastC","0","32","","","","",""
"","770","","770","500","stim","single-stim-button","36","144338","0.0-35.0","dietary_decision","true","0","","Healthy","770","health_rating","keeblerfudgestripes","1","33","","","","",""
"","822","","822","500","stim","single-stim-button","37","145662","0.0-36.0","dietary_decision","true","0","","Neutral","822","health_rating","uToberlorone","0","34","","","","",""
"","1783","","1783","500","stim","single-stim-button","38","147949","0.0-37.0","dietary_decision","true","0","","Unhealthy","1783","health_rating","cellery","-1","35","","","","",""
"","1079","","1079","500","stim","single-stim-button","39","149541","0.0-38.0","dietary_decision","true","0","","Unhealthy","1079","health_rating","wheatcrisps","-1","36","","","","",""
"","1406","","1406","500","stim","single-stim-button","40","151460","0.0-39.0","dietary_decision","true","0","","Neutral","1406","health_rating","FamousAmos","0","37","","","","",""
"","1091","","1091","500","stim","single-stim-button","41","153058","0.0-40.0","dietary_decision","true","0","","Healthy","1091","health_rating","mixedyogart","1","38","","","","",""
"","936","","936","500","stim","single-stim-button","42","154509","0.0-41.0","dietary_decision","true","0","","Healthy","936","health_rating","100Grand","1","39","","","","",""
"","1484","","1484","500","stim","single-stim-button","43","156499","0.0-42.0","dietary_decision","true","0","","Neutral","1484","health_rating","slimfastV","0","40","","","","",""
"","878","","878","500","stim","single-stim-button","44","157888","0.0-43.0","dietary_decision","true","0","","Neutral","878","health_rating","Reeses","0","41","","","","",""
"","1963","","1963","500","stim","single-stim-button","45","160360","0.0-44.0","dietary_decision","true","0","","Neutral","1963","health_rating","uTwix","0","42","","","","",""
"","611","","611","500","stim","single-stim-button","46","161479","0.0-45.0","dietary_decision","true","0","","Neutral","611","health_rating","grannysmith","0","43","","","","",""
"","1562","","1562","500","stim","single-stim-button","47","163551","0.0-46.0","dietary_decision","true","0","","Neutral","1562","health_rating","wwmuffin","0","44","","","","",""
"","732","","732","500","stim","single-stim-button","48","164797","0.0-47.0","dietary_decision","true","0","","Neutral","732","health_rating","ffraspsorbet","0","45","","","","",""
"","709","","709","500","stim","single-stim-button","49","166020","0.0-48.0","dietary_decision","true","0","","Neutral","709","health_rating","FlamingCheetos","0","46","","","","",""
"","628","","628","500","stim","single-stim-button","50","167160","0.0-49.0","dietary_decision","true","0","","Neutral","628","health_rating","RiceKrispyTreat","0","47","","","","",""
"","709","","709","500","stim","single-stim-button","51","168380","0.0-50.0","dietary_decision","true","0","","Neutral","709","health_rating","specialKbar","0","48","","","","",""
"","2096","","2096","500","stim","single-stim-button","52","170989","0.0-51.0","dietary_decision","true","0","","Neutral","2096","health_rating","brocollincauliflower","0","49","","","","",""
"<div class = centerbox><p class = ""center-block-text"">In the next block of trials, rate the tastiness of each food item without regard for its healthiness. Press <strong>enter</strong> to begin.</p></div>","3063","13","3063","500","start_taste","poldrack-text","53","174562","0.0-52.0","dietary_decision","true","0","","","","","","","","","","","",""
"","-1","","4000","500","stim","single-stim-button","54","179076","0.0-53.0","dietary_decision","true","0","","-1","4000","taste_rating","Oreos","NaN","0","","","","",""
"","3110","","3110","500","stim","single-stim-button","55","182687","0.0-54.0","dietary_decision","true","0","","Good","3110","taste_rating","redgrapes","1","1","","","","",""
"","2095","","2095","500","stim","single-stim-button","56","185294","0.0-55.0","dietary_decision","true","0","","Bad","2095","taste_rating","HoHo","-1","2","","","","",""
"","1405","","1405","500","stim","single-stim-button","57","187212","0.0-56.0","dietary_decision","true","0","","Bad","1405","taste_rating","banana","-1","3","","","","",""
"","1401","","1401","500","stim","single-stim-button","58","189125","0.0-57.0","dietary_decision","true","0","","Bad","1401","taste_rating","100Grand","-1","4","","","","",""
"","795","","795","500","stim","single-stim-button","59","190433","0.0-58.0","dietary_decision","true","0","","Bad","795","taste_rating","ChipsAhoy","-1","5","","","","",""
"","610","","610","500","stim","single-stim-button","60","191557","0.0-59.0","dietary_decision","true","0","","Bad","610","taste_rating","orangejello","-1","6","","","","",""
"","610","","610","500","stim","single-stim-button","61","192676","0.0-60.0","dietary_decision","true","0","","Bad","610","taste_rating","orange","-1","7","","","","",""
"","660","","660","500","stim","single-stim-button","62","193848","0.0-61.0","dietary_decision","true","0","","Bad","660","taste_rating","wwbrownie","-1","8","","","","",""
"","627","","627","500","stim","single-stim-button","63","194976","0.0-62.0","dietary_decision","true","0","","Bad","627","taste_rating","raisins","-1","9","","","","",""
"","655","","655","500","stim","single-stim-button","64","196142","0.0-63.0","dietary_decision","true","0","","Bad","655","taste_rating","cellery","-1","10","","","","",""
"","641","","641","500","stim","single-stim-button","65","197296","0.0-64.0","dietary_decision","true","0","","Bad","641","taste_rating","frozenyogart","-1","11","","","","",""
"","-1","","4000","500","stim","single-stim-button","66","201813","0.0-65.0","dietary_decision","true","0","","-1","4000","taste_rating","laysclassic","NaN","12","","","","",""
"","1702","","1702","500","stim","single-stim-button","67","204028","0.0-66.0","dietary_decision","true","0","","Neutral","1702","taste_rating","ffraspsorbet","0","13","","","","",""
"","2624","","2624","500","stim","single-stim-button","68","207166","0.0-67.0","dietary_decision","true","0","","Good","2624","taste_rating","grannysmith","1","14","","","","",""
"","1621","","1621","500","stim","single-stim-button","69","209298","0.0-68.0","dietary_decision","true","0","","Neutral","1621","taste_rating","uToberlorone","0","15","","","","",""
"","1338","","1338","500","stim","single-stim-button","70","211145","0.0-69.0","dietary_decision","true","0","","Bad","1338","taste_rating","MrsFields","-1","16","","","","",""
"","1466","","1466","500","stim","single-stim-button","71","213125","0.0-70.0","dietary_decision","true","0","","Bad","1466","taste_rating","sbdietbar","-1","17","","","","",""
"","1889","","1889","500","stim","single-stim-button","72","215529","0.0-71.0","dietary_decision","true","0","","Bad","1889","taste_rating","slimfastV","-1","18","","","","",""
"","1373","","1373","500","stim","single-stim-button","73","217415","0.0-72.0","dietary_decision","true","0","","Bad","1373","taste_rating","ruffles","-1","19","","","","",""
"","988","","988","500","stim","single-stim-button","74","218918","0.0-73.0","dietary_decision","true","0","","Bad","988","taste_rating","strussel","-1","20","","","","",""
"","656","","656","500","stim","single-stim-button","75","220084","0.0-74.0","dietary_decision","true","0","","Bad","656","taste_rating","keeblerrainbow","-1","21","","","","",""
"","608","","608","500","stim","single-stim-button","76","221205","0.0-75.0","dietary_decision","true","0","","Bad","608","taste_rating","Ghiradelli","-1","22","","","","",""
"","593","","593","500","stim","single-stim-button","77","222308","0.0-76.0","dietary_decision","true","0","","Bad","593","taste_rating","mixedyogart","-1","23","","","","",""
"","655","","655","500","stim","single-stim-button","78","223474","0.0-77.0","dietary_decision","true","0","","Bad","655","taste_rating","wheatcrisps","-1","24","","","","",""
"","1312","","1312","500","stim","single-stim-button","79","225298","0.0-78.0","dietary_decision","true","0","","Neutral","1312","taste_rating","FamousAmos","0","25","","","","",""
"","719","","719","500","stim","single-stim-button","80","226530","0.0-79.0","dietary_decision","true","0","","Bad","719","taste_rating","butterfinger","-1","26","","","","",""
"","985","","985","500","stim","single-stim-button","81","228029","0.0-80.0","dietary_decision","true","0","","Neutral","985","taste_rating","keeblerfudgestripes","0","27","","","","",""
"","910","","910","500","stim","single-stim-button","82","229439","0.0-81.0","dietary_decision","true","0","","Bad","910","taste_rating","cookies","-1","28","","","","",""
"","1031","","1031","500","stim","single-stim-button","83","230980","0.0-82.0","dietary_decision","true","0","","Bad","1031","taste_rating","Reeses","-1","29","","","","",""
"","1001","","1001","500","stim","single-stim-button","84","232493","0.0-83.0","dietary_decision","true","0","","Bad","1001","taste_rating","icecreamsandwich","-1","30","","","","",""
"","2032","","2032","500","stim","single-stim-button","85","235036","0.0-84.0","dietary_decision","true","0","","Bad","2032","taste_rating","carrots","-1","31","","","","",""
"","721","","721","500","stim","single-stim-button","86","236268","0.0-85.0","dietary_decision","true","0","","Bad","721","taste_rating","FlamingCheetos","-1","32","","","","",""
"","659","","659","500","stim","single-stim-button","87","237443","0.0-86.0","dietary_decision","true","0","","Bad","659","taste_rating","strawberries","-1","33","","","","",""
"","1990","","1990","500","stim","single-stim-button","88","239944","0.0-87.0","dietary_decision","true","0","","Very_Good","1990","taste_rating","reddelicious","2","34","","","","",""
"","1642","","1642","500","stim","single-stim-button","89","242100","0.0-88.0","dietary_decision","true","0","","Bad","1642","taste_rating","slimfastC","-1","35","","","","",""
"","1821","","1821","500","stim","single-stim-button","90","244430","0.0-89.0","dietary_decision","true","0","","Bad","1821","taste_rating","Doritosranch","-1","36","","","","",""
"","1175","","1175","500","stim","single-stim-button","91","246106","0.0-90.0","dietary_decision","true","0","","Bad","1175","taste_rating","blueberryyogart","-1","37","","","","",""
"","1409","","1409","500","stim","single-stim-button","92","248023","0.0-91.0","dietary_decision","true","0","","Neutral","1409","taste_rating","RiceKrispyTreat","0","38","","","","",""
"","882","","882","500","stim","single-stim-button","93","249417","0.0-92.0","dietary_decision","true","0","","Neutral","882","taste_rating","wwmuffin","0","39","","","","",""
"","907","","907","500","stim","single-stim-button","94","250832","0.0-93.0","dietary_decision","true","0","","Bad","907","taste_rating","specialKbar","-1","40","","","","",""
"","693","","693","500","stim","single-stim-button","95","252038","0.0-94.0","dietary_decision","true","0","","Neutral","693","taste_rating","cherryicecream","0","41","","","","",""
"","599","","599","500","stim","single-stim-button","96","253139","0.0-95.0","dietary_decision","true","0","","Bad","599","taste_rating","whitegrapes","-1","42","","","","",""
"","538","","538","500","stim","single-stim-button","97","254183","0.0-96.0","dietary_decision","true","0","","Neutral","538","taste_rating","cookiencream","0","43","","","","",""
"","964","","964","500","stim","single-stim-button","98","255662","0.0-97.0","dietary_decision","true","0","","Good","964","taste_rating","Lindt","1","44","","","","",""
"","1031","","1031","500","stim","single-stim-button","99","257205","0.0-98.0","dietary_decision","true","0","","Neutral","1031","taste_rating","sbcrackers","0","45","","","","",""
"","503","","503","500","stim","single-stim-button","100","258220","0.0-99.0","dietary_decision","true","0","","Neutral","503","taste_rating","brocollincauliflower","0","46","","","","",""
"","452","","452","500","stim","single-stim-button","101","259185","0.0-100.0","dietary_decision","true","0","","Neutral","452","taste_rating","KitKat","0","47","","","","",""
"","314","","314","500","stim","single-stim-button","102","260012","0.0-101.0","dietary_decision","true","0","","Neutral","314","taste_rating","cranberries","0","48","","","","",""
"","470","","470","500","stim","single-stim-button","103","260997","0.0-102.0","dietary_decision","true","0","","Neutral","470","taste_rating","uTwix","0","49","","","","",""
"","","","","","setup test","call-function","104","261532","0.0-104.0","dietary_decision","true","0","","","","","","","","","","","",""
"<div class = dd_centerbox><p class = ""block-text"">In the next block of trials you should choose whether you would rather eat the food shown on each trial OR the food shown below. You will select response from ""Strong No"", ""No"", ""Neutral"", ""Yes"" and ""Strong Yes"". ""No"" means that you would rather eat the food below, while ""Yes"" means you would rather eat the food displayed on that trial.</p><p class = block-text>Take these decisions seriously. Imagine that at the end of the experiment you had to eat the food you chose in one random decision.</p><p class = block-text>Press <strong>enter</strong> to begin.</p></div></div><div class = dd_referenceBox><img class = dd_Stim src = /static/experiments/dietary_decision/images/icecreamsandwich.bmp </img></div>","13731","13","13731","500","decision_text","poldrack-text","105","275265","0.0-105.0","dietary_decision","true","0","","","","","","","","","","","",""
"","3516","","3516","500","stim","single-stim-button","106","279296","0.0-106.0","dietary_decision","true","0","","Yes","3516","decision","wwbrownie","1","0","icecreamsandwich","{""health"":-1,""taste"":-1}","{""health"":0,""taste"":-1}","",""
"","2514","","2514","500","stim","single-stim-button","107","282322","0.0-107.0","dietary_decision","true","0","","No","2514","decision","cranberries","-1","1","icecreamsandwich","{""health"":0,""taste"":0}","{""health"":0,""taste"":-1}","",""
"","1657","","1657","500","stim","single-stim-button","108","284492","0.0-108.0","dietary_decision","true","0","","Yes","1657","decision","RiceKrispyTreat","1","2","icecreamsandwich","{""health"":0,""taste"":0}","{""health"":0,""taste"":-1}","",""
"","1420","","1420","500","stim","single-stim-button","109","286428","0.0-109.0","dietary_decision","true","0","","Neutral","1420","decision","uToberlorone","0","3","icecreamsandwich","{""health"":0,""taste"":0}","{""health"":0,""taste"":-1}","",""
"","1108","","1108","500","stim","single-stim-button","110","288049","0.0-110.0","dietary_decision","true","0","","No","1108","decision","slimfastC","-1","4","icecreamsandwich","{""health"":0,""taste"":-1}","{""health"":0,""taste"":-1}","",""
"","1095","","1095","500","stim","single-stim-button","111","289646","0.0-111.0","dietary_decision","true","0","","No","1095","decision","Oreos","-1","5","icecreamsandwich","{""health"":-1,""taste"":""NaN""}","{""health"":0,""taste"":-1}","",""
"","751","","751","500","stim","single-stim-button","112","290910","0.0-112.0","dietary_decision","true","0","","No","751","decision","blueberryyogart","-1","6","icecreamsandwich","{""health"":0,""taste"":-1}","{""health"":0,""taste"":-1}","",""
"","1347","","1347","500","stim","single-stim-button","113","292766","0.0-113.0","dietary_decision","true","0","","No","1347","decision","cookies","-1","7","icecreamsandwich","{""health"":0,""taste"":-1}","{""health"":0,""taste"":-1}","",""
"","874","","874","500","stim","single-stim-button","114","294153","0.0-114.0","dietary_decision","true","0","","No","874","decision","sbdietbar","-1","8","icecreamsandwich","{""health"":0,""taste"":-1}","{""health"":0,""taste"":-1}","",""
"","1602","","1602","500","stim","single-stim-button","115","296267","0.0-115.0","dietary_decision","true","0","","Yes","1602","decision","reddelicious","1","9","icecreamsandwich","{""health"":1,""taste"":2}","{""health"":0,""taste"":-1}","",""
"","2290","","2290","500","stim","single-stim-button","116","299070","0.0-116.0","dietary_decision","true","0","","Yes","2290","decision","wheatcrisps","1","10","icecreamsandwich","{""health"":-1,""taste"":-1}","{""health"":0,""taste"":-1}","",""
"","1014","","1014","500","stim","single-stim-button","117","300585","0.0-117.0","dietary_decision","true","0","","Neutral","1014","decision","carrots","0","11","icecreamsandwich","{""health"":0,""taste"":-1}","{""health"":0,""taste"":-1}","",""
"","1875","","1875","500","stim","single-stim-button","118","302972","0.0-118.0","dietary_decision","true","0","","Yes","1875","decision","frozenyogart","1","12","icecreamsandwich","{""health"":-1,""taste"":-1}","{""health"":0,""taste"":-1}","",""
"","2407","","2407","500","stim","single-stim-button","119","305888","0.0-119.0","dietary_decision","true","0","","Yes","2407","decision","wwmuffin","1","13","icecreamsandwich","{""health"":0,""taste"":0}","{""health"":0,""taste"":-1}","",""
"","596","","596","500","stim","single-stim-button","120","306994","0.0-120.0","dietary_decision","true","0","","Yes","596","decision","cellery","1","14","icecreamsandwich","{""health"":-1,""taste"":-1}","{""health"":0,""taste"":-1}","",""
"","349","","349","500","stim","single-stim-button","121","307855","0.0-121.0","dietary_decision","true","0","","Yes","349","decision","uTwix","1","15","icecreamsandwich","{""health"":0,""taste"":0}","{""health"":0,""taste"":-1}","",""
"","409","","409","500","stim","single-stim-button","122","308772","0.0-122.0","dietary_decision","true","0","","Yes","409","decision","grannysmith","1","16","icecreamsandwich","{""health"":0,""taste"":1}","{""health"":0,""taste"":-1}","",""
"","387","","387","500","stim","single-stim-button","123","309673","0.0-123.0","dietary_decision","true","0","","Yes","387","decision","cherryicecream","1","17","icecreamsandwich","{""health"":0,""taste"":0}","{""health"":0,""taste"":-1}","",""
"","455","","455","500","stim","single-stim-button","124","310638","0.0-124.0","dietary_decision","true","0","","Yes","455","decision","Lindt","1","18","icecreamsandwich","{""health"":0,""taste"":1}","{""health"":0,""taste"":-1}","",""
"","470","","470","500","stim","single-stim-button","125","311622","0.0-125.0","dietary_decision","true","0","","Yes","470","decision","banana","1","19","icecreamsandwich","{""health"":0,""taste"":-1}","{""health"":0,""taste"":-1}","",""
"","520","","520","500","stim","single-stim-button","126","312656","0.0-126.0","dietary_decision","true","0","","Yes","520","decision","whitegrapes","1","20","icecreamsandwich","{""health"":1,""taste"":-1}","{""health"":0,""taste"":-1}","",""
"","436","","436","500","stim","single-stim-button","127","313599","0.0-127.0","dietary_decision","true","0","","Yes","436","decision","slimfastV","1","21","icecreamsandwich","{""health"":0,""taste"":-1}","{""health"":0,""taste"":-1}","",""
"","950","","950","500","stim","single-stim-button","128","315061","0.0-128.0","dietary_decision","true","0","","Yes","950","decision","brocollincauliflower","1","22","icecreamsandwich","{""health"":0,""taste"":0}","{""health"":0,""taste"":-1}","",""
"","642","","642","500","stim","single-stim-button","129","316217","0.0-129.0","dietary_decision","true","0","","Yes","642","decision","ffraspsorbet","1","23","icecreamsandwich","{""health"":0,""taste"":0}","{""health"":0,""taste"":-1}","",""
"","891","","891","500","stim","single-stim-button","130","317621","0.0-130.0","dietary_decision","true","0","","Yes","891","decision","MrsFields","1","24","icecreamsandwich","{""health"":0,""taste"":-1}","{""health"":0,""taste"":-1}","",""
"","1097","","1097","500","stim","single-stim-button","131","319230","0.0-131.0","dietary_decision","true","0","","Yes","1097","decision","Reeses","1","25","icecreamsandwich","{""health"":0,""taste"":-1}","{""health"":0,""taste"":-1}","",""
"","565","","565","500","stim","single-stim-button","132","320310","0.0-132.0","dietary_decision","true","0","","Yes","565","decision","sbcrackers","1","26","icecreamsandwich","{""health"":-1,""taste"":0}","{""health"":0,""taste"":-1}","",""
"","391","","391","500","stim","single-stim-button","133","321214","0.0-133.0","dietary_decision","true","0","","Yes","391","decision","laysclassic","1","27","icecreamsandwich","{""health"":-1,""taste"":""NaN""}","{""health"":0,""taste"":-1}","",""
"","409","","409","500","stim","single-stim-button","134","322124","0.0-134.0","dietary_decision","true","0","","Yes","409","decision","FamousAmos","1","28","icecreamsandwich","{""health"":0,""taste"":0}","{""health"":0,""taste"":-1}","",""
"","377","","377","500","stim","single-stim-button","135","323003","0.0-135.0","dietary_decision","true","0","","Yes","377","decision","keeblerfudgestripes","1","29","icecreamsandwich","{""health"":1,""taste"":0}","{""health"":0,""taste"":-1}","",""
"","350","","350","500","stim","single-stim-button","136","323870","0.0-136.0","dietary_decision","true","0","","Yes","350","decision","Doritosranch","1","30","icecreamsandwich","{""health"":-1,""taste"":-1}","{""health"":0,""taste"":-1}","",""
"","362","","362","500","stim","single-stim-button","137","324734","0.0-137.0","dietary_decision","true","0","","Yes","362","decision","orange","1","31","icecreamsandwich","{""health"":0,""taste"":-1}","{""health"":0,""taste"":-1}","",""
"","345","","345","500","stim","single-stim-button","138","325589","0.0-138.0","dietary_decision","true","0","","Yes","345","decision","specialKbar","1","32","icecreamsandwich","{""health"":0,""taste"":-1}","{""health"":0,""taste"":-1}","",""
"","398","","398","500","stim","single-stim-button","139","326489","0.0-139.0","dietary_decision","true","0","","Yes","398","decision","KitKat","1","33","icecreamsandwich","{""health"":-1,""taste"":0}","{""health"":0,""taste"":-1}","",""
"","361","","361","500","stim","single-stim-button","140","327361","0.0-140.0","dietary_decision","true","0","","Yes","361","decision","ChipsAhoy","1","34","icecreamsandwich","{""health"":-1,""taste"":-1}","{""health"":0,""taste"":-1}","",""
"","318","","318","500","stim","single-stim-button","141","328191","0.0-141.0","dietary_decision","true","0","","Yes","318","decision","keeblerrainbow","1","35","icecreamsandwich","{""health"":0,""taste"":-1}","{""health"":0,""taste"":-1}","",""
"","320","","320","500","stim","single-stim-button","142","329024","0.0-142.0","dietary_decision","true","0","","Yes","320","decision","100Grand","1","36","icecreamsandwich","{""health"":1,""taste"":-1}","{""health"":0,""taste"":-1}","",""
"","348","","348","500","stim","single-stim-button","143","329872","0.0-143.0","dietary_decision","true","0","","Yes","348","decision","strawberries","1","37","icecreamsandwich","{""health"":1,""taste"":-1}","{""health"":0,""taste"":-1}","",""
"","348","","348","500","stim","single-stim-button","144","330726","0.0-144.0","dietary_decision","true","0","","Yes","348","decision","butterfinger","1","38","icecreamsandwich","{""health"":0,""taste"":-1}","{""health"":0,""taste"":-1}","",""
"","287","","287","500","stim","single-stim-button","145","331529","0.0-145.0","dietary_decision","true","0","","Yes","287","decision","orangejello","1","39","icecreamsandwich","{""health"":-1,""taste"":-1}","{""health"":0,""taste"":-1}","",""
"","288","","288","500","stim","single-stim-button","146","332333","0.0-146.0","dietary_decision","true","0","","Yes","288","decision","cookiencream","1","40","icecreamsandwich","{""health"":-1,""taste"":0}","{""health"":0,""taste"":-1}","",""
"","349","","349","500","stim","single-stim-button","147","333197","0.0-147.0","dietary_decision","true","0","","Yes","349","decision","Ghiradelli","1","41","icecreamsandwich","{""health"":""NaN"",""taste"":-1}","{""health"":0,""taste"":-1}","",""
"","361","","361","500","stim","single-stim-button","148","334070","0.0-148.0","dietary_decision","true","0","","Yes","361","decision","redgrapes","1","42","icecreamsandwich","{""health"":-1,""taste"":1}","{""health"":0,""taste"":-1}","",""
"","349","","349","500","stim","single-stim-button","149","334920","0.0-149.0","dietary_decision","true","0","","Yes","349","decision","HoHo","1","43","icecreamsandwich","{""health"":-1,""taste"":-1}","{""health"":0,""taste"":-1}","",""
"","350","","350","500","stim","single-stim-button","150","335781","0.0-150.0","dietary_decision","true","0","","Yes","350","decision","ruffles","1","44","icecreamsandwich","{""health"":0,""taste"":-1}","{""health"":0,""taste"":-1}","",""
"","395","","395","500","stim","single-stim-button","151","336676","0.0-151.0","dietary_decision","true","0","","Yes","395","decision","mixedyogart","1","45","icecreamsandwich","{""health"":1,""taste"":-1}","{""health"":0,""taste"":-1}","",""
"","396","","396","500","stim","single-stim-button","152","337583","0.0-152.0","dietary_decision","true","0","","Yes","396","decision","raisins","1","46","icecreamsandwich","{""health"":0,""taste"":-1}","{""health"":0,""taste"":-1}","",""
"","269","","269","500","stim","single-stim-button","153","338365","0.0-153.0","dietary_decision","true","0","","Yes","269","decision","strussel","1","47","icecreamsandwich","{""health"":-1,""taste"":-1}","{""health"":0,""taste"":-1}","",""
"","304","","304","500","stim","single-stim-button","154","339180","0.0-154.0","dietary_decision","true","0","","Yes","304","decision","FlamingCheetos","1","48","icecreamsandwich","{""health"":0,""taste"":-1}","{""health"":0,""taste"":-1}","",""
"","31455","","","","post task questions","survey-text","155","371151","0.0-155.0","dietary_decision","true","0","","","","","","","","","","","{""Q0"":""Health is wealth."",""Q1"":""Feeling hungry.""}",""
"<div class = centerbox><p class = ""center-block-text"">Thanks for completing this task!</p><p class = ""center-block-text"">Press <strong>enter</strong> to continue.</p></div>","1325","13","1325","0","end","poldrack-text","156","373482","0.0-156.0","dietary_decision","true","0","","","","","","","","","","","","true"
