"text","rt","key_press","block_duration","timing_post_trial","trial_id","trial_type","trial_index","time_elapsed","internal_node_id","exp_id","full_screen","focus_shifts","view_history","mouse_click","stim_duration","exp_stage","stim","coded_response","trial_num","reference","stim_rating","reference_rating","responses","credit_var"
"<div class = centerbox><p class = ""center-block-text"">Welcome to the experiment. This task will take around 15 minutes. Press <strong>enter</strong> to begin.</p></div>","5411","13","5411","0","instruction","poldrack-text","0","5419","0.0-0.0-0.0","dietary_decision","true","0","","","","","","","","","","","",""
"","13468","","","","instruction","poldrack-instructions","1","18888","0.0-0.0-1.0","dietary_decision","true","0","[{""page_index"":0,""viewing_time"":13467}]","","","","","","","","","","",""
"<div class = centerbox><p class = ""center-block-text"">In the next block of trials, rate the tastiness of each food item without regard for its healthiness. Press <strong>enter</strong> to begin.</p></div>","5664","13","5664","500","start_taste","poldrack-text","2","25560","0.0-1.0","dietary_decision","true","0","","","","","","","","","","","",""
"","-1","","4000","500","stim","single-stim-button","3","30076","0.0-2.0","dietary_decision","true","0","","-1","4000","taste_rating","uToberlorone","NaN","0","","","","",""
"","-1","","4000","500","stim","single-stim-button","4","34594","0.0-3.0","dietary_decision","true","0","","-1","4000","taste_rating","wheatcrisps","NaN","1","","","","",""
"","2064","","2064","500","stim","single-stim-button","5","37163","0.0-4.0","dietary_decision","true","0","","Very_Good","2064","taste_rating","banana","2","2","","","","",""
"","3240","","3240","500","stim","single-stim-button","6","40914","0.0-5.0","dietary_decision","true","0","","Good","3240","taste_rating","cellery","1","3","","","","",""
"","2829","","2829","500","stim","single-stim-button","7","44245","0.0-6.0","dietary_decision","true","0","","Very_Good","2829","taste_rating","ffraspsorbet","2","4","","","","",""
"","1427","","1427","500","stim","single-stim-button","8","46187","0.0-7.0","dietary_decision","true","0","","Very_Good","1427","taste_rating","cherryicecream","2","5","","","","",""
"","2959","","2959","500","stim","single-stim-button","9","49651","0.0-8.0","dietary_decision","true","0","","Neutral","2959","taste_rating","sbcrackers","0","6","","","","",""
"","2213","","2213","500","stim","single-stim-button","10","52366","0.0-9.0","dietary_decision","true","0","","Very_Good","2213","taste_rating","cranberries","2","7","","","","",""
"","1410","","1410","500","stim","single-stim-button","11","54287","0.0-10.0","dietary_decision","true","0","","Very_Good","1410","taste_rating","HoHo","2","8","","","","",""
"","2126","","2126","500","stim","single-stim-button","12","56918","0.0-11.0","dietary_decision","true","0","","Good","2126","taste_rating","redgrapes","1","9","","","","",""
"","2325","","2325","500","stim","single-stim-button","13","59745","0.0-12.0","dietary_decision","true","0","","Good","2325","taste_rating","RiceKrispyTreat","1","10","","","","",""
"","1955","","1955","500","stim","single-stim-button","14","62210","0.0-13.0","dietary_decision","true","0","","Neutral","1955","taste_rating","strawberries","0","11","","","","",""
"","2758","","2758","500","stim","single-stim-button","15","65479","0.0-14.0","dietary_decision","true","0","","Good","2758","taste_rating","wwbrownie","1","12","","","","",""
"","3717","","3717","500","stim","single-stim-button","16","69703","0.0-15.0","dietary_decision","true","0","","Neutral","3717","taste_rating","FlamingCheetos","0","13","","","","",""
"","1864","","1864","500","stim","single-stim-button","17","72071","0.0-16.0","dietary_decision","true","0","","Very_Good","1864","taste_rating","frozenyogart","2","14","","","","",""
"","3841","","3841","500","stim","single-stim-button","18","76425","0.0-17.0","dietary_decision","true","0","","Very_Good","3841","taste_rating","reddelicious","2","15","","","","",""
"","1731","","1731","500","stim","single-stim-button","19","78669","0.0-18.0","dietary_decision","true","0","","Very_Good","1731","taste_rating","whitegrapes","2","16","","","","",""
"","3191","","3191","500","stim","single-stim-button","20","82364","0.0-19.0","dietary_decision","true","0","","Good","3191","taste_rating","raisins","1","17","","","","",""
"","1991","","1991","500","stim","single-stim-button","21","84861","0.0-20.0","dietary_decision","true","0","","Neutral","1991","taste_rating","strussel","0","18","","","","",""
"","3245","","3245","500","stim","single-stim-button","22","88612","0.0-21.0","dietary_decision","true","0","","Good","3245","taste_rating","keeblerrainbow","1","19","","","","",""
"","1968","","1968","500","stim","single-stim-button","23","91094","0.0-22.0","dietary_decision","true","0","","Neutral","1968","taste_rating","mixedyogart","0","20","","","","",""
"","1412","","1412","500","stim","single-stim-button","24","93013","0.0-23.0","dietary_decision","true","0","","Very_Good","1412","taste_rating","Ghiradelli","2","21","","","","",""
"","1613","","1613","500","stim","single-stim-button","25","95129","0.0-24.0","dietary_decision","true","0","","Good","1613","taste_rating","brocollincauliflower","1","22","","","","",""
"","1006","","1006","500","stim","single-stim-button","26","96647","0.0-25.0","dietary_decision","true","0","","Good","1006","taste_rating","FamousAmos","1","23","","","","",""
"","1410","","1410","500","stim","single-stim-button","27","98561","0.0-26.0","dietary_decision","true","0","","Good","1410","taste_rating","grannysmith","1","24","","","","",""
"","987","","987","500","stim","single-stim-button","28","100054","0.0-27.0","dietary_decision","true","0","","Good","987","taste_rating","specialKbar","1","25","","","","",""
"","1146","","1146","500","stim","single-stim-button","29","101712","0.0-28.0","dietary_decision","true","0","","Good","1146","taste_rating","cookiencream","1","26","","","","",""
"","2112","","2112","500","stim","single-stim-button","30","104337","0.0-29.0","dietary_decision","true","0","","Good","2112","taste_rating","blueberryyogart","1","27","","","","",""
"","788","","788","500","stim","single-stim-button","31","105629","0.0-30.0","dietary_decision","true","0","","Good","788","taste_rating","ChipsAhoy","1","28","","","","",""
"","1677","","1677","500","stim","single-stim-button","32","107811","0.0-31.0","dietary_decision","true","0","","Good","1677","taste_rating","keeblerfudgestripes","1","29","","","","",""
"","1813","","1813","500","stim","single-stim-button","33","110137","0.0-32.0","dietary_decision","true","0","","Neutral","1813","taste_rating","ruffles","0","30","","","","",""
"","1495","","1495","500","stim","single-stim-button","34","112135","0.0-33.0","dietary_decision","true","0","","Very_Good","1495","taste_rating","Oreos","2","31","","","","",""
"","1211","","1211","500","stim","single-stim-button","35","113859","0.0-34.0","dietary_decision","true","0","","Very_Good","1211","taste_rating","icecreamsandwich","2","32","","","","",""
"","1667","","1667","500","stim","single-stim-button","36","116029","0.0-35.0","dietary_decision","true","0","","Neutral","1667","taste_rating","uTwix","0","33","","","","",""
"","2662","","2662","500","stim","single-stim-button","37","119196","0.0-36.0","dietary_decision","true","0","","Very_Good","2662","taste_rating","orange","2","34","","","","",""
"","1560","","1560","500","stim","single-stim-button","38","121261","0.0-37.0","dietary_decision","true","0","","Very_Good","1560","taste_rating","Reeses","2","35","","","","",""
"","911","","911","500","stim","single-stim-button","39","122679","0.0-38.0","dietary_decision","true","0","","Very_Good","911","taste_rating","slimfastV","2","36","","","","",""
"","1012","","1012","500","stim","single-stim-button","40","124204","0.0-39.0","dietary_decision","true","0","","Very_Good","1012","taste_rating","Lindt","2","37","","","","",""
"","922","","922","500","stim","single-stim-button","41","125637","0.0-40.0","dietary_decision","true","0","","Very_Good","922","taste_rating","KitKat","2","38","","","","",""
"","1329","","1329","500","stim","single-stim-button","42","127469","0.0-41.0","dietary_decision","true","0","","Very_Good","1329","taste_rating","orangejello","2","39","","","","",""
"","1203","","1203","500","stim","single-stim-button","43","129177","0.0-42.0","dietary_decision","true","0","","Very_Good","1203","taste_rating","MrsFields","2","40","","","","",""
"","644","","644","500","stim","single-stim-button","44","130329","0.0-43.0","dietary_decision","true","0","","Very_Good","644","taste_rating","butterfinger","2","41","","","","",""
"","855","","855","500","stim","single-stim-button","45","131694","0.0-44.0","dietary_decision","true","0","","Good","855","taste_rating","Doritosranch","1","42","","","","",""
"","1115","","1115","500","stim","single-stim-button","46","133315","0.0-45.0","dietary_decision","true","0","","Very_Good","1115","taste_rating","wwmuffin","2","43","","","","",""
"","902","","902","500","stim","single-stim-button","47","134721","0.0-46.0","dietary_decision","true","0","","Good","902","taste_rating","slimfastC","1","44","","","","",""
"","1856","","1856","500","stim","single-stim-button","48","137079","0.0-47.0","dietary_decision","true","0","","Good","1856","taste_rating","carrots","1","45","","","","",""
"","1094","","1094","500","stim","single-stim-button","49","138687","0.0-48.0","dietary_decision","true","0","","Good","1094","taste_rating","cookies","1","46","","","","",""
"","762","","762","500","stim","single-stim-button","50","139953","0.0-49.0","dietary_decision","true","0","","Good","762","taste_rating","100Grand","1","47","","","","",""
"","728","","728","500","stim","single-stim-button","51","141184","0.0-50.0","dietary_decision","true","0","","Good","728","taste_rating","laysclassic","1","48","","","","",""
"","833","","833","500","stim","single-stim-button","52","142529","0.0-51.0","dietary_decision","true","0","","Good","833","taste_rating","sbdietbar","1","49","","","","",""
"<div class = centerbox><p class = ""center-block-text"">In the next block of trials, rate the healthiness of each food item without regard for its taste. Press <strong>enter</strong> to begin.</p></div>","5505","13","5505","500","start_health","poldrack-text","53","148539","0.0-52.0","dietary_decision","true","0","","","","","","","","","","","",""
"","2434","","2434","500","stim","single-stim-button","54","151475","0.0-53.0","dietary_decision","true","0","","Healthy","2434","health_rating","whitegrapes","1","0","","","","",""
"","2344","","2344","500","stim","single-stim-button","55","154334","0.0-54.0","dietary_decision","true","0","","Neutral","2344","health_rating","cherryicecream","0","1","","","","",""
"","2845","","2845","500","stim","single-stim-button","56","157696","0.0-55.0","dietary_decision","true","0","","Neutral","2845","health_rating","wheatcrisps","0","2","","","","",""
"","1305","","1305","500","stim","single-stim-button","57","159506","0.0-56.0","dietary_decision","true","0","","Neutral","1305","health_rating","mixedyogart","0","3","","","","",""
"","1614","","1614","500","stim","single-stim-button","58","161622","0.0-57.0","dietary_decision","true","0","","Neutral","1614","health_rating","strussel","0","4","","","","",""
"","1067","","1067","500","stim","single-stim-button","59","163195","0.0-58.0","dietary_decision","true","0","","Neutral","1067","health_rating","FamousAmos","0","5","","","","",""
"","1435","","1435","500","stim","single-stim-button","60","165136","0.0-59.0","dietary_decision","true","0","","Neutral","1435","health_rating","uTwix","0","6","","","","",""
"","998","","998","500","stim","single-stim-button","61","166639","0.0-60.0","dietary_decision","true","0","","Neutral","998","health_rating","slimfastV","0","7","","","","",""
"","1296","","1296","500","stim","single-stim-button","62","168440","0.0-61.0","dietary_decision","true","0","","Neutral","1296","health_rating","carrots","0","8","","","","",""
"","1228","","1228","500","stim","single-stim-button","63","170170","0.0-62.0","dietary_decision","true","0","","Neutral","1228","health_rating","cellery","0","9","","","","",""
"","1629","","1629","500","stim","single-stim-button","64","172311","0.0-63.0","dietary_decision","true","0","","Healthy","1629","health_rating","frozenyogart","1","10","","","","",""
"","1505","","1505","500","stim","single-stim-button","65","174321","0.0-64.0","dietary_decision","true","0","","Neutral","1505","health_rating","wwbrownie","0","11","","","","",""
"","995","","995","500","stim","single-stim-button","66","175830","0.0-65.0","dietary_decision","true","0","","Neutral","995","health_rating","sbcrackers","0","12","","","","",""
"","1744","","1744","500","stim","single-stim-button","67","178086","0.0-66.0","dietary_decision","true","0","","Unhealthy","1744","health_rating","FlamingCheetos","-1","13","","","","",""
"","1122","","1122","500","stim","single-stim-button","68","179713","0.0-67.0","dietary_decision","true","0","","Unhealthy","1122","health_rating","Doritosranch","-1","14","","","","",""
"","2423","","2423","500","stim","single-stim-button","69","182645","0.0-68.0","dietary_decision","true","0","","Healthy","2423","health_rating","specialKbar","1","15","","","","",""
"","1328","","1328","500","stim","single-stim-button","70","184487","0.0-69.0","dietary_decision","true","0","","Healthy","1328","health_rating","cookies","1","16","","","","",""
"","1496","","1496","500","stim","single-stim-button","71","186496","0.0-70.0","dietary_decision","true","0","","Healthy","1496","health_rating","butterfinger","1","17","","","","",""
"","1958","","1958","500","stim","single-stim-button","72","188962","0.0-71.0","dietary_decision","true","0","","Healthy","1958","health_rating","brocollincauliflower","1","18","","","","",""
"","3153","","3153","500","stim","single-stim-button","73","192620","0.0-72.0","dietary_decision","true","0","","Neutral","3153","health_rating","orangejello","0","19","","","","",""
"","1606","","1606","500","stim","single-stim-button","74","194730","0.0-73.0","dietary_decision","true","0","","Healthy","1606","health_rating","keeblerrainbow","1","20","","","","",""
"","1992","","1992","500","stim","single-stim-button","75","197227","0.0-74.0","dietary_decision","true","0","","Neutral","1992","health_rating","Reeses","0","21","","","","",""
"","1188","","1188","500","stim","single-stim-button","76","198928","0.0-75.0","dietary_decision","true","0","","Neutral","1188","health_rating","cranberries","0","22","","","","",""
"","1032","","1032","500","stim","single-stim-button","77","200469","0.0-76.0","dietary_decision","true","0","","Neutral","1032","health_rating","reddelicious","0","23","","","","",""
"","1600","","1600","500","stim","single-stim-button","78","202582","0.0-77.0","dietary_decision","true","0","","Healthy","1600","health_rating","ChipsAhoy","1","24","","","","",""
"","1422","","1422","500","stim","single-stim-button","79","204513","0.0-78.0","dietary_decision","true","0","","Healthy","1422","health_rating","KitKat","1","25","","","","",""
"","2944","","2944","500","stim","single-stim-button","80","207961","0.0-79.0","dietary_decision","true","0","","Healthy","2944","health_rating","blueberryyogart","1","26","","","","",""
"","-1","","4000","500","stim","single-stim-button","81","212471","0.0-80.0","dietary_decision","true","0","","-1","4000","health_rating","Lindt","NaN","27","","","","",""
"","1451","","1451","500","stim","single-stim-button","82","214436","0.0-81.0","dietary_decision","true","0","","Neutral","1451","health_rating","HoHo","0","28","","","","",""
"","2052","","2052","500","stim","single-stim-button","83","217002","0.0-82.0","dietary_decision","true","0","","Unhealthy","2052","health_rating","Ghiradelli","-1","29","","","","",""
"","1479","","1479","500","stim","single-stim-button","84","218985","0.0-83.0","dietary_decision","true","0","","Unhealthy","1479","health_rating","ruffles","-1","30","","","","",""
"","1411","","1411","500","stim","single-stim-button","85","220912","0.0-84.0","dietary_decision","true","0","","Unhealthy","1411","health_rating","ffraspsorbet","-1","31","","","","",""
"","1528","","1528","500","stim","single-stim-button","86","222944","0.0-85.0","dietary_decision","true","0","","Neutral","1528","health_rating","wwmuffin","0","32","","","","",""
"","1404","","1404","500","stim","single-stim-button","87","224861","0.0-86.0","dietary_decision","true","0","","Neutral","1404","health_rating","icecreamsandwich","0","33","","","","",""
"","-1","","4000","500","stim","single-stim-button","88","229376","0.0-87.0","dietary_decision","true","0","","-1","4000","health_rating","grannysmith","NaN","34","","","","",""
"","1314","","1314","500","stim","single-stim-button","89","231191","0.0-88.0","dietary_decision","true","0","","Healthy","1314","health_rating","keeblerfudgestripes","1","35","","","","",""
"","1374","","1374","500","stim","single-stim-button","90","233078","0.0-89.0","dietary_decision","true","0","","Healthy","1374","health_rating","100Grand","1","36","","","","",""
"","928","","928","500","stim","single-stim-button","91","234518","0.0-90.0","dietary_decision","true","0","","Healthy","928","health_rating","RiceKrispyTreat","1","37","","","","",""
"","1843","","1843","500","stim","single-stim-button","92","236870","0.0-91.0","dietary_decision","true","0","","Unhealthy","1843","health_rating","laysclassic","-1","38","","","","",""
"","1271","","1271","500","stim","single-stim-button","93","238646","0.0-92.0","dietary_decision","true","0","","Healthy","1271","health_rating","cookiencream","1","39","","","","",""
"","2182","","2182","500","stim","single-stim-button","94","241341","0.0-93.0","dietary_decision","true","0","","Healthy","2182","health_rating","redgrapes","1","40","","","","",""
"","3075","","3075","500","stim","single-stim-button","95","244920","0.0-94.0","dietary_decision","true","0","","Unhealthy","3075","health_rating","strawberries","-1","41","","","","",""
"","1389","","1389","500","stim","single-stim-button","96","246821","0.0-95.0","dietary_decision","true","0","","Unhealthy","1389","health_rating","orange","-1","42","","","","",""
"","1219","","1219","500","stim","single-stim-button","97","248542","0.0-96.0","dietary_decision","true","0","","Healthy","1219","health_rating","banana","1","43","","","","",""
"","1189","","1189","500","stim","single-stim-button","98","250238","0.0-97.0","dietary_decision","true","0","","Healthy","1189","health_rating","MrsFields","1","44","","","","",""
"","836","","836","500","stim","single-stim-button","99","251585","0.0-98.0","dietary_decision","true","0","","Healthy","836","health_rating","uToberlorone","1","45","","","","",""
"","910","","910","500","stim","single-stim-button","100","253003","0.0-99.0","dietary_decision","true","0","","Healthy","910","health_rating","slimfastC","1","46","","","","",""
"","745","","745","500","stim","single-stim-button","101","254252","0.0-100.0","dietary_decision","true","0","","Healthy","745","health_rating","sbdietbar","1","47","","","","",""
"","602","","602","500","stim","single-stim-button","102","255360","0.0-101.0","dietary_decision","true","0","","Healthy","602","health_rating","raisins","1","48","","","","",""
"","506","","506","500","stim","single-stim-button","103","256378","0.0-102.0","dietary_decision","true","0","","Healthy","506","health_rating","Oreos","1","49","","","","",""
"","","","","","setup test","call-function","104","256911","0.0-103.0","dietary_decision","true","0","","","","","","","","","","","",""
"<div class = dd_centerbox><p class = ""block-text"">In the next block of trials you should choose whether you would rather eat the food shown on each trial OR the food shown below. You will select response from ""Strong No"", ""No"", ""Neutral"", ""Yes"" and ""Strong Yes"". ""No"" means that you would rather eat the food below, while ""Yes"" means you would rather eat the food displayed on that trial.</p><p class = block-text>Take these decisions seriously. Imagine that at the end of the experiment you had to eat the food you chose in one random decision.</p><p class = block-text>Press <strong>enter</strong> to begin.</p></div></div><div class = dd_referenceBox><img class = dd_Stim src = /static/experiments/dietary_decision/images/FamousAmos.bmp </img></div>","25594","13","25594","500","decision_text","poldrack-text","105","282505","0.0-104.0","dietary_decision","true","0","","","","","","","","","","","",""
"","1955","","1955","500","stim","single-stim-button","106","284970","0.0-105.0","dietary_decision","true","0","","No","1955","decision","Doritosranch","-1","0","FamousAmos","{""taste"":1,""health"":-1}","{""taste"":1,""health"":0}","",""
"","2055","","2055","500","stim","single-stim-button","107","287527","0.0-106.0","dietary_decision","true","0","","Yes","2055","decision","ChipsAhoy","1","1","FamousAmos","{""taste"":1,""health"":1}","{""taste"":1,""health"":0}","",""
"","1972","","1972","500","stim","single-stim-button","108","290005","0.0-107.0","dietary_decision","true","0","","Strong_Yes","1972","decision","Lindt","2","2","FamousAmos","{""taste"":2,""health"":""NaN""}","{""taste"":1,""health"":0}","",""
"","1571","","1571","500","stim","single-stim-button","109","292088","0.0-108.0","dietary_decision","true","0","","Yes","1571","decision","laysclassic","1","3","FamousAmos","{""taste"":1,""health"":-1}","{""taste"":1,""health"":0}","",""
"","1944","","1944","500","stim","single-stim-button","110","294544","0.0-109.0","dietary_decision","true","0","","No","1944","decision","frozenyogart","-1","4","FamousAmos","{""taste"":2,""health"":1}","{""taste"":1,""health"":0}","",""
"","1464","","1464","500","stim","single-stim-button","111","296521","0.0-110.0","dietary_decision","true","0","","Yes","1464","decision","KitKat","1","5","FamousAmos","{""taste"":2,""health"":1}","{""taste"":1,""health"":0}","",""
"","1778","","1778","500","stim","single-stim-button","112","298812","0.0-111.0","dietary_decision","true","0","","Strong_No","1778","decision","strawberries","-2","6","FamousAmos","{""taste"":0,""health"":-1}","{""taste"":1,""health"":0}","",""
"","2177","","2177","500","stim","single-stim-button","113","301494","0.0-112.0","dietary_decision","true","0","","Yes","2177","decision","Reeses","1","7","FamousAmos","{""taste"":2,""health"":0}","{""taste"":1,""health"":0}","",""
"","1709","","1709","500","stim","single-stim-button","114","303711","0.0-113.0","dietary_decision","true","0","","Neutral","1709","decision","butterfinger","0","8","FamousAmos","{""taste"":2,""health"":1}","{""taste"":1,""health"":0}","",""
"","1136","","1136","500","stim","single-stim-button","115","305352","0.0-114.0","dietary_decision","true","0","","Yes","1136","decision","orange","1","9","FamousAmos","{""taste"":2,""health"":-1}","{""taste"":1,""health"":0}","",""
"","1314","","1314","500","stim","single-stim-button","116","307178","0.0-115.0","dietary_decision","true","0","","Yes","1314","decision","RiceKrispyTreat","1","10","FamousAmos","{""taste"":1,""health"":1}","{""taste"":1,""health"":0}","",""
"","1501","","1501","500","stim","single-stim-button","117","309185","0.0-116.0","dietary_decision","true","0","","Neutral","1501","decision","slimfastV","0","11","FamousAmos","{""taste"":2,""health"":0}","{""taste"":1,""health"":0}","",""
"","1687","","1687","500","stim","single-stim-button","118","311387","0.0-117.0","dietary_decision","true","0","","No","1687","decision","redgrapes","-1","12","FamousAmos","{""taste"":1,""health"":1}","{""taste"":1,""health"":0}","",""
"","1738","","1738","500","stim","single-stim-button","119","313628","0.0-118.0","dietary_decision","true","0","","Yes","1738","decision","mixedyogart","1","13","FamousAmos","{""taste"":0,""health"":0}","{""taste"":1,""health"":0}","",""
"","870","","870","500","stim","single-stim-button","120","315011","0.0-119.0","dietary_decision","true","0","","Yes","870","decision","HoHo","1","14","FamousAmos","{""taste"":2,""health"":0}","{""taste"":1,""health"":0}","",""
"","688","","688","500","stim","single-stim-button","121","316205","0.0-120.0","dietary_decision","true","0","","Yes","688","decision","carrots","1","15","FamousAmos","{""taste"":1,""health"":0}","{""taste"":1,""health"":0}","",""
"","888","","888","500","stim","single-stim-button","122","317604","0.0-121.0","dietary_decision","true","0","","Yes","888","decision","uTwix","1","16","FamousAmos","{""taste"":0,""health"":0}","{""taste"":1,""health"":0}","",""
"","688","","688","500","stim","single-stim-button","123","318794","0.0-122.0","dietary_decision","true","0","","Yes","688","decision","FlamingCheetos","1","17","FamousAmos","{""taste"":0,""health"":-1}","{""taste"":1,""health"":0}","",""
"","1945","","1945","500","stim","single-stim-button","124","321252","0.0-123.0","dietary_decision","true","0","","Yes","1945","decision","uToberlorone","1","18","FamousAmos","{""taste"":""NaN"",""health"":1}","{""taste"":1,""health"":0}","",""
"","1460","","1460","500","stim","single-stim-button","125","323228","0.0-124.0","dietary_decision","true","0","","Yes","1460","decision","specialKbar","1","19","FamousAmos","{""taste"":1,""health"":1}","{""taste"":1,""health"":0}","",""
"","669","","669","500","stim","single-stim-button","126","324411","0.0-125.0","dietary_decision","true","0","","Yes","669","decision","blueberryyogart","1","20","FamousAmos","{""taste"":1,""health"":1}","{""taste"":1,""health"":0}","",""
"","770","","770","500","stim","single-stim-button","127","325696","0.0-126.0","dietary_decision","true","0","","Yes","770","decision","brocollincauliflower","1","21","FamousAmos","{""taste"":1,""health"":1}","{""taste"":1,""health"":0}","",""
"","660","","660","500","stim","single-stim-button","128","326863","0.0-127.0","dietary_decision","true","0","","Yes","660","decision","banana","1","22","FamousAmos","{""taste"":2,""health"":1}","{""taste"":1,""health"":0}","",""
"","589","","589","500","stim","single-stim-button","129","327962","0.0-128.0","dietary_decision","true","0","","Yes","589","decision","keeblerrainbow","1","23","FamousAmos","{""taste"":1,""health"":1}","{""taste"":1,""health"":0}","",""
"","602","","602","500","stim","single-stim-button","130","329077","0.0-129.0","dietary_decision","true","0","","Yes","602","decision","keeblerfudgestripes","1","24","FamousAmos","{""taste"":1,""health"":1}","{""taste"":1,""health"":0}","",""
"","650","","650","500","stim","single-stim-button","131","330243","0.0-130.0","dietary_decision","true","0","","Yes","650","decision","icecreamsandwich","1","25","FamousAmos","{""taste"":2,""health"":0}","{""taste"":1,""health"":0}","",""
"","834","","834","500","stim","single-stim-button","132","331592","0.0-131.0","dietary_decision","true","0","","Yes","834","decision","Oreos","1","26","FamousAmos","{""taste"":2,""health"":1}","{""taste"":1,""health"":0}","",""
"","668","","668","500","stim","single-stim-button","133","332770","0.0-132.0","dietary_decision","true","0","","Yes","668","decision","cherryicecream","1","27","FamousAmos","{""taste"":2,""health"":0}","{""taste"":1,""health"":0}","",""
"","530","","530","500","stim","single-stim-button","134","333804","0.0-133.0","dietary_decision","true","0","","Yes","530","decision","MrsFields","1","28","FamousAmos","{""taste"":2,""health"":1}","{""taste"":1,""health"":0}","",""
"","1320","","1320","500","stim","single-stim-button","135","335638","0.0-134.0","dietary_decision","true","0","","Yes","1320","decision","strussel","1","29","FamousAmos","{""taste"":0,""health"":0}","{""taste"":1,""health"":0}","",""
"","641","","641","500","stim","single-stim-button","136","336790","0.0-135.0","dietary_decision","true","0","","Yes","641","decision","100Grand","1","30","FamousAmos","{""taste"":1,""health"":1}","{""taste"":1,""health"":0}","",""
"","559","","559","500","stim","single-stim-button","137","337862","0.0-136.0","dietary_decision","true","0","","Yes","559","decision","cookies","1","31","FamousAmos","{""taste"":1,""health"":1}","{""taste"":1,""health"":0}","",""
"","612","","612","500","stim","single-stim-button","138","338985","0.0-137.0","dietary_decision","true","0","","Yes","612","decision","cranberries","1","32","FamousAmos","{""taste"":2,""health"":0}","{""taste"":1,""health"":0}","",""
"","659","","659","500","stim","single-stim-button","139","340161","0.0-138.0","dietary_decision","true","0","","Yes","659","decision","whitegrapes","1","33","FamousAmos","{""taste"":2,""health"":1}","{""taste"":1,""health"":0}","",""
"","800","","800","500","stim","single-stim-button","140","341469","0.0-139.0","dietary_decision","true","0","","Yes","800","decision","Ghiradelli","1","34","FamousAmos","{""taste"":2,""health"":-1}","{""taste"":1,""health"":0}","",""
"","688","","688","500","stim","single-stim-button","141","342663","0.0-140.0","dietary_decision","true","0","","Yes","688","decision","ruffles","1","35","FamousAmos","{""taste"":0,""health"":-1}","{""taste"":1,""health"":0}","",""
"","572","","572","500","stim","single-stim-button","142","343739","0.0-141.0","dietary_decision","true","0","","Yes","572","decision","cookiencream","1","36","FamousAmos","{""taste"":1,""health"":1}","{""taste"":1,""health"":0}","",""
"","554","","554","500","stim","single-stim-button","143","344804","0.0-142.0","dietary_decision","true","0","","Yes","554","decision","wheatcrisps","1","37","FamousAmos","{""taste"":""NaN"",""health"":0}","{""taste"":1,""health"":0}","",""
"","562","","562","500","stim","single-stim-button","144","345871","0.0-143.0","dietary_decision","true","0","","Yes","562","decision","sbdietbar","1","38","FamousAmos","{""taste"":1,""health"":1}","{""taste"":1,""health"":0}","",""
"","642","","642","500","stim","single-stim-button","145","347026","0.0-144.0","dietary_decision","true","0","","Yes","642","decision","wwbrownie","1","39","FamousAmos","{""taste"":1,""health"":0}","{""taste"":1,""health"":0}","",""
"","620","","620","500","stim","single-stim-button","146","348153","0.0-145.0","dietary_decision","true","0","","Yes","620","decision","orangejello","1","40","FamousAmos","{""taste"":2,""health"":0}","{""taste"":1,""health"":0}","",""
"","636","","636","500","stim","single-stim-button","147","349294","0.0-146.0","dietary_decision","true","0","","Yes","636","decision","ffraspsorbet","1","41","FamousAmos","{""taste"":2,""health"":-1}","{""taste"":1,""health"":0}","",""
"","1520","","1520","500","stim","single-stim-button","148","351328","0.0-147.0","dietary_decision","true","0","","No","1520","decision","sbcrackers","-1","42","FamousAmos","{""taste"":0,""health"":0}","{""taste"":1,""health"":0}","",""
"","1047","","1047","500","stim","single-stim-button","149","352886","0.0-148.0","dietary_decision","true","0","","No","1047","decision","reddelicious","-1","43","FamousAmos","{""taste"":2,""health"":0}","{""taste"":1,""health"":0}","",""
"","713","","713","500","stim","single-stim-button","150","354111","0.0-149.0","dietary_decision","true","0","","No","713","decision","raisins","-1","44","FamousAmos","{""taste"":1,""health"":1}","{""taste"":1,""health"":0}","",""
"","853","","853","500","stim","single-stim-button","151","355470","0.0-150.0","dietary_decision","true","0","","No","853","decision","slimfastC","-1","45","FamousAmos","{""taste"":1,""health"":1}","{""taste"":1,""health"":0}","",""
"","751","","751","500","stim","single-stim-button","152","356728","0.0-151.0","dietary_decision","true","0","","No","751","decision","grannysmith","-1","46","FamousAmos","{""taste"":1,""health"":""NaN""}","{""taste"":1,""health"":0}","",""
"","701","","701","500","stim","single-stim-button","153","357942","0.0-152.0","dietary_decision","true","0","","No","701","decision","cellery","-1","47","FamousAmos","{""taste"":1,""health"":0}","{""taste"":1,""health"":0}","",""
"","761","","761","500","stim","single-stim-button","154","359210","0.0-153.0","dietary_decision","true","0","","No","761","decision","wwmuffin","-1","48","FamousAmos","{""taste"":2,""health"":0}","{""taste"":1,""health"":0}","",""
"","69608","","","","post task questions","survey-text","155","429334","0.0-154.0","dietary_decision","true","0","","","","","","","","","","","{""Q0"":""healthy diet to-do list"",""Q1"":""GREAT SURVEY""}",""
"<div class = centerbox><p class = ""center-block-text"">Thanks for completing this task!</p><p class = ""center-block-text"">Press <strong>enter</strong> to continue.</p></div>","1805","13","1805","0","end","poldrack-text","156","432157","0.0-155.0","dietary_decision","true","0","","","","","","","","","","","","true"
