"text","rt","key_press","block_duration","timing_post_trial","trial_id","trial_type","trial_index","time_elapsed","internal_node_id","exp_id","full_screen","focus_shifts","view_history","mouse_click","stim_duration","exp_stage","stim","coded_response","trial_num","reference","stim_rating","reference_rating","responses","credit_var"
"<div class = centerbox><p class = ""center-block-text"">Welcome to the experiment. This task will take around 15 minutes. Press <strong>enter</strong> to begin.</p></div>","2650","13","2650","0","instruction","poldrack-text","0","2651","0.0-0.0-0.0","dietary_decision","true","0","","","","","","","","","","","",""
"","5431","","","","instruction","poldrack-instructions","1","8083","0.0-0.0-1.0","dietary_decision","true","0","[{""page_index"":0,""viewing_time"":5431}]","","","","","","","","","","",""
"<div class = centerbox><p class = ""center-block-text"">In the next block of trials, rate the tastiness of each food item without regard for its healthiness. Press <strong>enter</strong> to begin.</p></div>","2768","13","2768","500","start_taste","poldrack-text","2","11866","0.0-1.0","dietary_decision","true","0","","","","","","","","","","","",""
"","-1","","4000","500","stim","single-stim-button","3","16384","0.0-2.0","dietary_decision","true","0","","-1","4000","taste_rating","Oreos","NaN","0","","","","",""
"","1115","","1115","500","stim","single-stim-button","4","18006","0.0-3.0","dietary_decision","true","0","","Good","1115","taste_rating","Doritosranch","1","1","","","","",""
"","2167","","2167","500","stim","single-stim-button","5","20679","0.0-4.0","dietary_decision","true","0","","Good","2167","taste_rating","cherryicecream","1","2","","","","",""
"","1793","","1793","500","stim","single-stim-button","6","22987","0.0-5.0","dietary_decision","true","0","","Good","1793","taste_rating","whitegrapes","1","3","","","","",""
"","2983","","2983","500","stim","single-stim-button","7","26478","0.0-6.0","dietary_decision","true","0","","Good","2983","taste_rating","frozenyogart","1","4","","","","",""
"","1394","","1394","500","stim","single-stim-button","8","28387","0.0-7.0","dietary_decision","true","0","","Good","1394","taste_rating","redgrapes","1","5","","","","",""
"","1141","","1141","500","stim","single-stim-button","9","30041","0.0-8.0","dietary_decision","true","0","","Good","1141","taste_rating","orange","1","6","","","","",""
"","2159","","2159","500","stim","single-stim-button","10","32713","0.0-9.0","dietary_decision","true","0","","Good","2159","taste_rating","cranberries","1","7","","","","",""
"","2274","","2274","500","stim","single-stim-button","11","35489","0.0-10.0","dietary_decision","true","0","","Bad","2274","taste_rating","slimfastC","-1","8","","","","",""
"","1586","","1586","500","stim","single-stim-button","12","37579","0.0-11.0","dietary_decision","true","0","","Very_Good","1586","taste_rating","KitKat","2","9","","","","",""
"","1723","","1723","500","stim","single-stim-button","13","39809","0.0-12.0","dietary_decision","true","0","","Neutral","1723","taste_rating","cellery","0","10","","","","",""
"","1948","","1948","500","stim","single-stim-button","14","42269","0.0-13.0","dietary_decision","true","0","","Good","1948","taste_rating","icecreamsandwich","1","11","","","","",""
"","1414","","1414","500","stim","single-stim-button","15","44198","0.0-14.0","dietary_decision","true","0","","Good","1414","taste_rating","reddelicious","1","12","","","","",""
"","2329","","2329","500","stim","single-stim-button","16","47033","0.0-15.0","dietary_decision","true","0","","Neutral","2329","taste_rating","wwmuffin","0","13","","","","",""
"","1976","","1976","500","stim","single-stim-button","17","49510","0.0-16.0","dietary_decision","true","0","","Very_Bad","1976","taste_rating","brocollincauliflower","-2","14","","","","",""
"","2580","","2580","500","stim","single-stim-button","18","52601","0.0-17.0","dietary_decision","true","0","","Neutral","2580","taste_rating","specialKbar","0","15","","","","",""
"","2246","","2246","500","stim","single-stim-button","19","55351","0.0-18.0","dietary_decision","true","0","","Good","2246","taste_rating","raisins","1","16","","","","",""
"","1884","","1884","500","stim","single-stim-button","20","57740","0.0-19.0","dietary_decision","true","0","","Good","1884","taste_rating","banana","1","17","","","","",""
"","3513","","3513","500","stim","single-stim-button","21","61755","0.0-20.0","dietary_decision","true","0","","Good","3513","taste_rating","wwbrownie","1","18","","","","",""
"","1986","","1986","500","stim","single-stim-button","22","64254","0.0-21.0","dietary_decision","true","0","","Very_Good","1986","taste_rating","cookiencream","2","19","","","","",""
"","2622","","2622","500","stim","single-stim-button","23","67386","0.0-22.0","dietary_decision","true","0","","Neutral","2622","taste_rating","Reeses","0","20","","","","",""
"","1343","","1343","500","stim","single-stim-button","24","69239","0.0-23.0","dietary_decision","true","0","","Good","1343","taste_rating","FlamingCheetos","1","21","","","","",""
"","1629","","1629","500","stim","single-stim-button","25","71382","0.0-24.0","dietary_decision","true","0","","Bad","1629","taste_rating","mixedyogart","-1","22","","","","",""
"","1379","","1379","500","stim","single-stim-button","26","73263","0.0-25.0","dietary_decision","true","0","","Bad","1379","taste_rating","sbcrackers","-1","23","","","","",""
"","2217","","2217","500","stim","single-stim-button","27","75985","0.0-26.0","dietary_decision","true","0","","Neutral","2217","taste_rating","ffraspsorbet","0","24","","","","",""
"","1543","","1543","500","stim","single-stim-button","28","78044","0.0-27.0","dietary_decision","true","0","","Good","1543","taste_rating","FamousAmos","1","25","","","","",""
"","1656","","1656","500","stim","single-stim-button","29","80204","0.0-28.0","dietary_decision","true","0","","Good","1656","taste_rating","butterfinger","1","26","","","","",""
"","1562","","1562","500","stim","single-stim-button","30","82274","0.0-29.0","dietary_decision","true","0","","Good","1562","taste_rating","sbdietbar","1","27","","","","",""
"","2958","","2958","500","stim","single-stim-button","31","85746","0.0-30.0","dietary_decision","true","0","","Good","2958","taste_rating","cookies","1","28","","","","",""
"","1377","","1377","500","stim","single-stim-button","32","87634","0.0-31.0","dietary_decision","true","0","","Good","1377","taste_rating","grannysmith","1","29","","","","",""
"","2737","","2737","500","stim","single-stim-button","33","90887","0.0-32.0","dietary_decision","true","0","","Good","2737","taste_rating","strussel","1","30","","","","",""
"","1714","","1714","500","stim","single-stim-button","34","93116","0.0-33.0","dietary_decision","true","0","","Neutral","1714","taste_rating","ruffles","0","31","","","","",""
"","1531","","1531","500","stim","single-stim-button","35","95161","0.0-34.0","dietary_decision","true","0","","Very_Good","1531","taste_rating","uTwix","2","32","","","","",""
"","1636","","1636","500","stim","single-stim-button","36","97300","0.0-35.0","dietary_decision","true","0","","Good","1636","taste_rating","ChipsAhoy","1","33","","","","",""
"","3455","","3455","500","stim","single-stim-button","37","101271","0.0-36.0","dietary_decision","true","0","","Very_Bad","3455","taste_rating","carrots","-2","34","","","","",""
"","2078","","2078","500","stim","single-stim-button","38","103852","0.0-37.0","dietary_decision","true","0","","Good","2078","taste_rating","laysclassic","1","35","","","","",""
"","1951","","1951","500","stim","single-stim-button","39","106307","0.0-38.0","dietary_decision","true","0","","Good","1951","taste_rating","uToberlorone","1","36","","","","",""
"","1592","","1592","500","stim","single-stim-button","40","108412","0.0-39.0","dietary_decision","true","0","","Good","1592","taste_rating","keeblerfudgestripes","1","37","","","","",""
"","1986","","1986","500","stim","single-stim-button","41","110904","0.0-40.0","dietary_decision","true","0","","Neutral","1986","taste_rating","blueberryyogart","0","38","","","","",""
"","1303","","1303","500","stim","single-stim-button","42","112710","0.0-41.0","dietary_decision","true","0","","Good","1303","taste_rating","Ghiradelli","1","39","","","","",""
"","1178","","1178","500","stim","single-stim-button","43","114390","0.0-42.0","dietary_decision","true","0","","Good","1178","taste_rating","100Grand","1","40","","","","",""
"","1097","","1097","500","stim","single-stim-button","44","115998","0.0-43.0","dietary_decision","true","0","","Good","1097","taste_rating","keeblerrainbow","1","41","","","","",""
"","1608","","1608","500","stim","single-stim-button","45","118106","0.0-44.0","dietary_decision","true","0","","Bad","1608","taste_rating","RiceKrispyTreat","-1","42","","","","",""
"","3033","","3033","500","stim","single-stim-button","46","121654","0.0-45.0","dietary_decision","true","0","","Bad","3033","taste_rating","wheatcrisps","-1","43","","","","",""
"","2463","","2463","500","stim","single-stim-button","47","124619","0.0-46.0","dietary_decision","true","0","","Very_Good","2463","taste_rating","Lindt","2","44","","","","",""
"","1591","","1591","500","stim","single-stim-button","48","126717","0.0-47.0","dietary_decision","true","0","","Good","1591","taste_rating","orangejello","1","45","","","","",""
"","1319","","1319","500","stim","single-stim-button","49","128550","0.0-48.0","dietary_decision","true","0","","Good","1319","taste_rating","strawberries","1","46","","","","",""
"","1527","","1527","500","stim","single-stim-button","50","130577","0.0-49.0","dietary_decision","true","0","","Neutral","1527","taste_rating","slimfastV","0","47","","","","",""
"","2305","","2305","500","stim","single-stim-button","51","133394","0.0-50.0","dietary_decision","true","0","","Good","2305","taste_rating","MrsFields","1","48","","","","",""
"","1701","","1701","500","stim","single-stim-button","52","135599","0.0-51.0","dietary_decision","true","0","","Good","1701","taste_rating","HoHo","1","49","","","","",""
"<div class = centerbox><p class = ""center-block-text"">In the next block of trials, rate the healthiness of each food item without regard for its taste. Press <strong>enter</strong> to begin.</p></div>","3835","13","3835","500","start_health","poldrack-text","53","139940","0.0-52.0","dietary_decision","true","0","","","","","","","","","","","",""
"","1950","","1950","500","stim","single-stim-button","54","142394","0.0-53.0","dietary_decision","true","0","","Unhealthy","1950","health_rating","keeblerfudgestripes","-1","0","","","","",""
"","2615","","2615","500","stim","single-stim-button","55","145522","0.0-54.0","dietary_decision","true","0","","Healthy","2615","health_rating","specialKbar","1","1","","","","",""
"","1234","","1234","500","stim","single-stim-button","56","147271","0.0-55.0","dietary_decision","true","0","","Very_Healthy","1234","health_rating","brocollincauliflower","2","2","","","","",""
"","2408","","2408","500","stim","single-stim-button","57","150188","0.0-56.0","dietary_decision","true","0","","Healthy","2408","health_rating","ffraspsorbet","1","3","","","","",""
"","1974","","1974","500","stim","single-stim-button","58","152671","0.0-57.0","dietary_decision","true","0","","Very_Healthy","1974","health_rating","carrots","2","4","","","","",""
"","2210","","2210","500","stim","single-stim-button","59","155396","0.0-58.0","dietary_decision","true","0","","Neutral","2210","health_rating","strussel","0","5","","","","",""
"","1655","","1655","500","stim","single-stim-button","60","157555","0.0-59.0","dietary_decision","true","0","","Very_Healthy","1655","health_rating","reddelicious","2","6","","","","",""
"","786","","786","500","stim","single-stim-button","61","158846","0.0-60.0","dietary_decision","true","0","","Very_Healthy","786","health_rating","whitegrapes","2","7","","","","",""
"","1970","","1970","500","stim","single-stim-button","62","161326","0.0-61.0","dietary_decision","true","0","","Unhealthy","1970","health_rating","Ghiradelli","-1","8","","","","",""
"","2359","","2359","500","stim","single-stim-button","63","164194","0.0-62.0","dietary_decision","true","0","","Neutral","2359","health_rating","cranberries","0","9","","","","",""
"","1961","","1961","500","stim","single-stim-button","64","166660","0.0-63.0","dietary_decision","true","0","","Very_Unhealthy","1961","health_rating","uToberlorone","-2","10","","","","",""
"","1556","","1556","500","stim","single-stim-button","65","168721","0.0-64.0","dietary_decision","true","0","","Unhealthy","1556","health_rating","ChipsAhoy","-1","11","","","","",""
"","1280","","1280","500","stim","single-stim-button","66","170507","0.0-65.0","dietary_decision","true","0","","Unhealthy","1280","health_rating","FamousAmos","-1","12","","","","",""
"","1881","","1881","500","stim","single-stim-button","67","172899","0.0-66.0","dietary_decision","true","0","","Unhealthy","1881","health_rating","cookiencream","-1","13","","","","",""
"","1685","","1685","500","stim","single-stim-button","68","175092","0.0-67.0","dietary_decision","true","0","","Very_Healthy","1685","health_rating","orange","2","14","","","","",""
"","2169","","2169","500","stim","single-stim-button","69","177764","0.0-68.0","dietary_decision","true","0","","Healthy","2169","health_rating","frozenyogart","1","15","","","","",""
"","2509","","2509","500","stim","single-stim-button","70","180779","0.0-69.0","dietary_decision","true","0","","Very_Healthy","2509","health_rating","redgrapes","2","16","","","","",""
"","-1","","4000","500","stim","single-stim-button","71","185302","0.0-70.0","dietary_decision","true","0","","-1","4000","health_rating","100Grand","NaN","17","","","","",""
"","1313","","1313","500","stim","single-stim-button","72","187117","0.0-71.0","dietary_decision","true","0","","Very_Healthy","1313","health_rating","strawberries","2","18","","","","",""
"","1984","","1984","500","stim","single-stim-button","73","189602","0.0-72.0","dietary_decision","true","0","","Healthy","1984","health_rating","RiceKrispyTreat","1","19","","","","",""
"","1953","","1953","500","stim","single-stim-button","74","192060","0.0-73.0","dietary_decision","true","0","","Unhealthy","1953","health_rating","Reeses","-1","20","","","","",""
"","1784","","1784","500","stim","single-stim-button","75","194355","0.0-74.0","dietary_decision","true","0","","Unhealthy","1784","health_rating","icecreamsandwich","-1","21","","","","",""
"","1776","","1776","500","stim","single-stim-button","76","196639","0.0-75.0","dietary_decision","true","0","","Neutral","1776","health_rating","orangejello","0","22","","","","",""
"","1835","","1835","500","stim","single-stim-button","77","198990","0.0-76.0","dietary_decision","true","0","","Healthy","1835","health_rating","HoHo","1","23","","","","",""
"","1910","","1910","500","stim","single-stim-button","78","201405","0.0-77.0","dietary_decision","true","0","","Healthy","1910","health_rating","mixedyogart","1","24","","","","",""
"","1224","","1224","500","stim","single-stim-button","79","203144","0.0-78.0","dietary_decision","true","0","","Very_Healthy","1224","health_rating","banana","2","25","","","","",""
"","1838","","1838","500","stim","single-stim-button","80","205496","0.0-79.0","dietary_decision","true","0","","Very_Unhealthy","1838","health_rating","Doritosranch","-2","26","","","","",""
"","1779","","1779","500","stim","single-stim-button","81","207782","0.0-80.0","dietary_decision","true","0","","Neutral","1779","health_rating","MrsFields","0","27","","","","",""
"","2283","","2283","500","stim","single-stim-button","82","210573","0.0-81.0","dietary_decision","true","0","","Very_Unhealthy","2283","health_rating","FlamingCheetos","-2","28","","","","",""
"","1769","","1769","500","stim","single-stim-button","83","212854","0.0-82.0","dietary_decision","true","0","","Healthy","1769","health_rating","sbdietbar","1","29","","","","",""
"","2299","","2299","500","stim","single-stim-button","84","215665","0.0-83.0","dietary_decision","true","0","","Unhealthy","2299","health_rating","Lindt","-1","30","","","","",""
"","1752","","1752","500","stim","single-stim-button","85","217918","0.0-84.0","dietary_decision","true","0","","Healthy","1752","health_rating","raisins","1","31","","","","",""
"","2013","","2013","500","stim","single-stim-button","86","220440","0.0-85.0","dietary_decision","true","0","","Neutral","2013","health_rating","keeblerrainbow","0","32","","","","",""
"","2196","","2196","500","stim","single-stim-button","87","223144","0.0-86.0","dietary_decision","true","0","","Healthy","2196","health_rating","ruffles","1","33","","","","",""
"","2037","","2037","500","stim","single-stim-button","88","225690","0.0-87.0","dietary_decision","true","0","","Healthy","2037","health_rating","cellery","1","34","","","","",""
"","2118","","2118","500","stim","single-stim-button","89","228322","0.0-88.0","dietary_decision","true","0","","Very_Unhealthy","2118","health_rating","Oreos","-2","35","","","","",""
"","1460","","1460","500","stim","single-stim-button","90","230290","0.0-89.0","dietary_decision","true","0","","Neutral","1460","health_rating","slimfastV","0","36","","","","",""
"","1294","","1294","500","stim","single-stim-button","91","232100","0.0-90.0","dietary_decision","true","0","","Very_Healthy","1294","health_rating","grannysmith","2","37","","","","",""
"","1496","","1496","500","stim","single-stim-button","92","234103","0.0-91.0","dietary_decision","true","0","","Unhealthy","1496","health_rating","uTwix","-1","38","","","","",""
"","1380","","1380","500","stim","single-stim-button","93","235990","0.0-92.0","dietary_decision","true","0","","Unhealthy","1380","health_rating","laysclassic","-1","39","","","","",""
"","2455","","2455","500","stim","single-stim-button","94","238956","0.0-93.0","dietary_decision","true","0","","Healthy","2455","health_rating","cherryicecream","1","40","","","","",""
"","2086","","2086","500","stim","single-stim-button","95","241543","0.0-94.0","dietary_decision","true","0","","Healthy","2086","health_rating","wwmuffin","1","41","","","","",""
"","1570","","1570","500","stim","single-stim-button","96","243622","0.0-95.0","dietary_decision","true","0","","Neutral","1570","health_rating","butterfinger","0","42","","","","",""
"","1085","","1085","500","stim","single-stim-button","97","245214","0.0-96.0","dietary_decision","true","0","","Neutral","1085","health_rating","slimfastC","0","43","","","","",""
"","2179","","2179","500","stim","single-stim-button","98","247908","0.0-97.0","dietary_decision","true","0","","Unhealthy","2179","health_rating","cookies","-1","44","","","","",""
"","1895","","1895","500","stim","single-stim-button","99","250311","0.0-98.0","dietary_decision","true","0","","Healthy","1895","health_rating","wwbrownie","1","45","","","","",""
"","1899","","1899","500","stim","single-stim-button","100","252726","0.0-99.0","dietary_decision","true","0","","Very_Unhealthy","1899","health_rating","KitKat","-2","46","","","","",""
"","1868","","1868","500","stim","single-stim-button","101","255101","0.0-100.0","dietary_decision","true","0","","Healthy","1868","health_rating","sbcrackers","1","47","","","","",""
"","1870","","1870","500","stim","single-stim-button","102","257482","0.0-101.0","dietary_decision","true","0","","Healthy","1870","health_rating","blueberryyogart","1","48","","","","",""
"","1417","","1417","500","stim","single-stim-button","103","259412","0.0-102.0","dietary_decision","true","0","","Healthy","1417","health_rating","wheatcrisps","1","49","","","","",""
"","","","","","setup test","call-function","104","259946","0.0-103.0","dietary_decision","true","0","","","","","","","","","","","",""
"<div class = dd_centerbox><p class = ""block-text"">In the next block of trials you should choose whether you would rather eat the food shown on each trial OR the food shown below. You will select response from ""Strong No"", ""No"", ""Neutral"", ""Yes"" and ""Strong Yes"". ""No"" means that you would rather eat the food below, while ""Yes"" means you would rather eat the food displayed on that trial.</p><p class = block-text>Take these decisions seriously. Imagine that at the end of the experiment you had to eat the food you chose in one random decision.</p><p class = block-text>Press <strong>enter</strong> to begin.</p></div></div><div class = dd_referenceBox><img class = dd_Stim src = /static/experiments/dietary_decision/images/wwbrownie.bmp </img></div>","14302","13","14302","500","decision_text","poldrack-text","105","274248","0.0-104.0","dietary_decision","true","0","","","","","","","","","","","",""
"","1331","","1331","500","stim","single-stim-button","106","276093","0.0-105.0","dietary_decision","true","0","","Yes","1331","decision","100Grand","1","0","wwbrownie","{""taste"":1,""health"":""NaN""}","{""taste"":1,""health"":1}","",""
"","3116","","3116","500","stim","single-stim-button","107","279713","0.0-106.0","dietary_decision","true","0","","Yes","3116","decision","Ghiradelli","1","1","wwbrownie","{""taste"":1,""health"":-1}","{""taste"":1,""health"":1}","",""
"","1823","","1823","500","stim","single-stim-button","108","282044","0.0-107.0","dietary_decision","true","0","","Yes","1823","decision","grannysmith","1","2","wwbrownie","{""taste"":1,""health"":2}","{""taste"":1,""health"":1}","",""
"","1199","","1199","500","stim","single-stim-button","109","283747","0.0-108.0","dietary_decision","true","0","","Yes","1199","decision","icecreamsandwich","1","3","wwbrownie","{""taste"":1,""health"":-1}","{""taste"":1,""health"":1}","",""
"","2567","","2567","500","stim","single-stim-button","110","286829","0.0-109.0","dietary_decision","true","0","","No","2567","decision","wheatcrisps","-1","4","wwbrownie","{""taste"":-1,""health"":1}","{""taste"":1,""health"":1}","",""
"","2388","","2388","500","stim","single-stim-button","111","289723","0.0-110.0","dietary_decision","true","0","","No","2388","decision","slimfastC","-1","5","wwbrownie","{""taste"":-1,""health"":0}","{""taste"":1,""health"":1}","",""
"","1337","","1337","500","stim","single-stim-button","112","291572","0.0-111.0","dietary_decision","true","0","","Strong_Yes","1337","decision","laysclassic","2","6","wwbrownie","{""taste"":1,""health"":-1}","{""taste"":1,""health"":1}","",""
"","1943","","1943","500","stim","single-stim-button","113","294031","0.0-112.0","dietary_decision","true","0","","Strong_No","1943","decision","blueberryyogart","-2","7","wwbrownie","{""taste"":0,""health"":1}","{""taste"":1,""health"":1}","",""
"","1822","","1822","500","stim","single-stim-button","114","296357","0.0-113.0","dietary_decision","true","0","","Strong_No","1822","decision","cellery","-2","8","wwbrownie","{""taste"":0,""health"":1}","{""taste"":1,""health"":1}","",""
"","1399","","1399","500","stim","single-stim-button","115","298263","0.0-114.0","dietary_decision","true","0","","Strong_Yes","1399","decision","cookiencream","2","9","wwbrownie","{""taste"":2,""health"":-1}","{""taste"":1,""health"":1}","",""
"","1463","","1463","500","stim","single-stim-button","116","300228","0.0-115.0","dietary_decision","true","0","","Yes","1463","decision","redgrapes","1","10","wwbrownie","{""taste"":1,""health"":2}","{""taste"":1,""health"":1}","",""
"","1799","","1799","500","stim","single-stim-button","117","302530","0.0-116.0","dietary_decision","true","0","","No","1799","decision","cranberries","-1","11","wwbrownie","{""taste"":1,""health"":0}","{""taste"":1,""health"":1}","",""
"","3302","","3302","500","stim","single-stim-button","118","306336","0.0-117.0","dietary_decision","true","0","","Yes","3302","decision","sbcrackers","1","12","wwbrownie","{""taste"":-1,""health"":1}","{""taste"":1,""health"":1}","",""
"","1589","","1589","500","stim","single-stim-button","119","308427","0.0-118.0","dietary_decision","true","0","","Yes","1589","decision","orangejello","1","13","wwbrownie","{""taste"":1,""health"":0}","{""taste"":1,""health"":1}","",""
"","2088","","2088","500","stim","single-stim-button","120","311028","0.0-119.0","dietary_decision","true","0","","Yes","2088","decision","raisins","1","14","wwbrownie","{""taste"":1,""health"":1}","{""taste"":1,""health"":1}","",""
"","1752","","1752","500","stim","single-stim-button","121","313293","0.0-120.0","dietary_decision","true","0","","Neutral","1752","decision","ruffles","0","15","wwbrownie","{""taste"":0,""health"":1}","{""taste"":1,""health"":1}","",""
"","1648","","1648","500","stim","single-stim-button","122","315446","0.0-121.0","dietary_decision","true","0","","Yes","1648","decision","whitegrapes","1","16","wwbrownie","{""taste"":1,""health"":2}","{""taste"":1,""health"":1}","",""
"","1417","","1417","500","stim","single-stim-button","123","317368","0.0-122.0","dietary_decision","true","0","","Strong_Yes","1417","decision","Oreos","2","17","wwbrownie","{""taste"":""NaN"",""health"":-2}","{""taste"":1,""health"":1}","",""
"","2304","","2304","500","stim","single-stim-button","124","320180","0.0-123.0","dietary_decision","true","0","","Neutral","2304","decision","cherryicecream","0","18","wwbrownie","{""taste"":1,""health"":1}","{""taste"":1,""health"":1}","",""
"","2761","","2761","500","stim","single-stim-button","125","323455","0.0-124.0","dietary_decision","true","0","","Strong_No","2761","decision","RiceKrispyTreat","-2","19","wwbrownie","{""taste"":-1,""health"":1}","{""taste"":1,""health"":1}","",""
"","1301","","1301","500","stim","single-stim-button","126","325261","0.0-125.0","dietary_decision","true","0","","Yes","1301","decision","strawberries","1","20","wwbrownie","{""taste"":1,""health"":2}","{""taste"":1,""health"":1}","",""
"","1494","","1494","500","stim","single-stim-button","127","327270","0.0-126.0","dietary_decision","true","0","","Yes","1494","decision","orange","1","21","wwbrownie","{""taste"":1,""health"":2}","{""taste"":1,""health"":1}","",""
"","2710","","2710","500","stim","single-stim-button","128","330493","0.0-127.0","dietary_decision","true","0","","Yes","2710","decision","FamousAmos","1","22","wwbrownie","{""taste"":1,""health"":-1}","{""taste"":1,""health"":1}","",""
"","2071","","2071","500","stim","single-stim-button","129","333076","0.0-128.0","dietary_decision","true","0","","Neutral","2071","decision","sbdietbar","0","23","wwbrownie","{""taste"":1,""health"":1}","{""taste"":1,""health"":1}","",""
"","1239","","1239","500","stim","single-stim-button","130","334828","0.0-129.0","dietary_decision","true","0","","Yes","1239","decision","banana","1","24","wwbrownie","{""taste"":1,""health"":2}","{""taste"":1,""health"":1}","",""
"","1641","","1641","500","stim","single-stim-button","131","336980","0.0-130.0","dietary_decision","true","0","","No","1641","decision","specialKbar","-1","25","wwbrownie","{""taste"":0,""health"":1}","{""taste"":1,""health"":1}","",""
"","1590","","1590","500","stim","single-stim-button","132","339086","0.0-131.0","dietary_decision","true","0","","Neutral","1590","decision","butterfinger","0","26","wwbrownie","{""taste"":1,""health"":0}","{""taste"":1,""health"":1}","",""
"","1448","","1448","500","stim","single-stim-button","133","341042","0.0-132.0","dietary_decision","true","0","","Yes","1448","decision","uTwix","1","27","wwbrownie","{""taste"":2,""health"":-1}","{""taste"":1,""health"":1}","",""
"","1885","","1885","500","stim","single-stim-button","134","343433","0.0-133.0","dietary_decision","true","0","","No","1885","decision","keeblerfudgestripes","-1","28","wwbrownie","{""taste"":1,""health"":-1}","{""taste"":1,""health"":1}","",""
"","1265","","1265","500","stim","single-stim-button","135","345209","0.0-134.0","dietary_decision","true","0","","No","1265","decision","mixedyogart","-1","29","wwbrownie","{""taste"":-1,""health"":1}","{""taste"":1,""health"":1}","",""
"","1819","","1819","500","stim","single-stim-button","136","347535","0.0-135.0","dietary_decision","true","0","","Strong_No","1819","decision","brocollincauliflower","-2","30","wwbrownie","{""taste"":-2,""health"":2}","{""taste"":1,""health"":1}","",""
"","1554","","1554","500","stim","single-stim-button","137","349598","0.0-136.0","dietary_decision","true","0","","No","1554","decision","ffraspsorbet","-1","31","wwbrownie","{""taste"":0,""health"":1}","{""taste"":1,""health"":1}","",""
"","1255","","1255","500","stim","single-stim-button","138","351363","0.0-137.0","dietary_decision","true","0","","No","1255","decision","Reeses","-1","32","wwbrownie","{""taste"":0,""health"":-1}","{""taste"":1,""health"":1}","",""
"","2607","","2607","500","stim","single-stim-button","139","354472","0.0-138.0","dietary_decision","true","0","","Strong_No","2607","decision","carrots","-2","33","wwbrownie","{""taste"":-2,""health"":2}","{""taste"":1,""health"":1}","",""
"","1995","","1995","500","stim","single-stim-button","140","356973","0.0-139.0","dietary_decision","true","0","","No","1995","decision","strussel","-1","34","wwbrownie","{""taste"":1,""health"":0}","{""taste"":1,""health"":1}","",""
"","1557","","1557","500","stim","single-stim-button","141","359034","0.0-140.0","dietary_decision","true","0","","Strong_No","1557","decision","FlamingCheetos","-2","35","wwbrownie","{""taste"":1,""health"":-2}","{""taste"":1,""health"":1}","",""
"","1959","","1959","500","stim","single-stim-button","142","361500","0.0-141.0","dietary_decision","true","0","","No","1959","decision","HoHo","-1","36","wwbrownie","{""taste"":1,""health"":1}","{""taste"":1,""health"":1}","",""
"","1510","","1510","500","stim","single-stim-button","143","363520","0.0-142.0","dietary_decision","true","0","","No","1510","decision","slimfastV","-1","37","wwbrownie","{""taste"":0,""health"":0}","{""taste"":1,""health"":1}","",""
"","2002","","2002","500","stim","single-stim-button","144","366034","0.0-143.0","dietary_decision","true","0","","No","2002","decision","keeblerrainbow","-1","38","wwbrownie","{""taste"":1,""health"":0}","{""taste"":1,""health"":1}","",""
"","2756","","2756","500","stim","single-stim-button","145","369298","0.0-144.0","dietary_decision","true","0","","Yes","2756","decision","reddelicious","1","39","wwbrownie","{""taste"":1,""health"":2}","{""taste"":1,""health"":1}","",""
"","1630","","1630","500","stim","single-stim-button","146","371442","0.0-145.0","dietary_decision","true","0","","Yes","1630","decision","Lindt","1","40","wwbrownie","{""taste"":2,""health"":-1}","{""taste"":1,""health"":1}","",""
"","1475","","1475","500","stim","single-stim-button","147","373430","0.0-146.0","dietary_decision","true","0","","Neutral","1475","decision","MrsFields","0","41","wwbrownie","{""taste"":1,""health"":0}","{""taste"":1,""health"":1}","",""
"","1356","","1356","500","stim","single-stim-button","148","375292","0.0-147.0","dietary_decision","true","0","","Yes","1356","decision","uToberlorone","1","42","wwbrownie","{""taste"":1,""health"":-2}","{""taste"":1,""health"":1}","",""
"","1748","","1748","500","stim","single-stim-button","149","377556","0.0-148.0","dietary_decision","true","0","","No","1748","decision","frozenyogart","-1","43","wwbrownie","{""taste"":1,""health"":1}","{""taste"":1,""health"":1}","",""
"","2152","","2152","500","stim","single-stim-button","150","380221","0.0-149.0","dietary_decision","true","0","","Yes","2152","decision","cookies","1","44","wwbrownie","{""taste"":1,""health"":-1}","{""taste"":1,""health"":1}","",""
"","1475","","1475","500","stim","single-stim-button","151","382201","0.0-150.0","dietary_decision","true","0","","Strong_Yes","1475","decision","KitKat","2","45","wwbrownie","{""taste"":2,""health"":-2}","{""taste"":1,""health"":1}","",""
"","1508","","1508","500","stim","single-stim-button","152","384220","0.0-151.0","dietary_decision","true","0","","Yes","1508","decision","Doritosranch","1","46","wwbrownie","{""taste"":1,""health"":-2}","{""taste"":1,""health"":1}","",""
"","2955","","2955","500","stim","single-stim-button","153","387680","0.0-152.0","dietary_decision","true","0","","Neutral","2955","decision","wwmuffin","0","47","wwbrownie","{""taste"":0,""health"":1}","{""taste"":1,""health"":1}","",""
"","2307","","2307","500","stim","single-stim-button","154","390492","0.0-153.0","dietary_decision","true","0","","Yes","2307","decision","ChipsAhoy","1","48","wwbrownie","{""taste"":1,""health"":-1}","{""taste"":1,""health"":1}","",""
"","2329","","","","post task questions","survey-text","155","393336","0.0-154.0","dietary_decision","true","0","","","","","","","","","","","{""Q0"":"""",""Q1"":""""}",""
"<div class = centerbox><p class = ""center-block-text"">Thanks for completing this task!</p><p class = ""center-block-text"">Press <strong>enter</strong> to continue.</p></div>","2902","13","2902","0","end","poldrack-text","156","397245","0.0-155.0","dietary_decision","true","0","","","","","","","","","","","","true"
