text,rt,key_press,block_duration,timing_post_trial,trial_id,trial_type,trial_index,time_elapsed,internal_node_id,exp_id,full_screen,focus_shifts,view_history,mouse_click,stim_duration,exp_stage,stim,coded_response,trial_num,reference,stim_rating,reference_rating,responses,credit_var,subject
,1115.0,,1115.0,500.0,stim,single-stim-button,4,18006,0.0-3.0,dietary_decision,True,0,,Good,1115.0,taste_rating,Doritosranch,1.0,1.0,,,,,,0
,2167.0,,2167.0,500.0,stim,single-stim-button,5,20679,0.0-4.0,dietary_decision,True,0,,Good,2167.0,taste_rating,cherryicecream,1.0,2.0,,,,,,0
,1793.0,,1793.0,500.0,stim,single-stim-button,6,22987,0.0-5.0,dietary_decision,True,0,,Good,1793.0,taste_rating,whitegrapes,1.0,3.0,,,,,,0
,2983.0,,2983.0,500.0,stim,single-stim-button,7,26478,0.0-6.0,dietary_decision,True,0,,Good,2983.0,taste_rating,frozenyogart,1.0,4.0,,,,,,0
,1394.0,,1394.0,500.0,stim,single-stim-button,8,28387,0.0-7.0,dietary_decision,True,0,,Good,1394.0,taste_rating,redgrapes,1.0,5.0,,,,,,0
,1141.0,,1141.0,500.0,stim,single-stim-button,9,30041,0.0-8.0,dietary_decision,True,0,,Good,1141.0,taste_rating,orange,1.0,6.0,,,,,,0
,2159.0,,2159.0,500.0,stim,single-stim-button,10,32713,0.0-9.0,dietary_decision,True,0,,Good,2159.0,taste_rating,cranberries,1.0,7.0,,,,,,0
,2274.0,,2274.0,500.0,stim,single-stim-button,11,35489,0.0-10.0,dietary_decision,True,0,,Bad,2274.0,taste_rating,slimfastC,-1.0,8.0,,,,,,0
,1586.0,,1586.0,500.0,stim,single-stim-button,12,37579,0.0-11.0,dietary_decision,True,0,,Very_Good,1586.0,taste_rating,KitKat,2.0,9.0,,,,,,0
,1723.0,,1723.0,500.0,stim,single-stim-button,13,39809,0.0-12.0,dietary_decision,True,0,,Neutral,1723.0,taste_rating,cellery,0.0,10.0,,,,,,0
,1948.0,,1948.0,500.0,stim,single-stim-button,14,42269,0.0-13.0,dietary_decision,True,0,,Good,1948.0,taste_rating,icecreamsandwich,1.0,11.0,,,,,,0
,1414.0,,1414.0,500.0,stim,single-stim-button,15,44198,0.0-14.0,dietary_decision,True,0,,Good,1414.0,taste_rating,reddelicious,1.0,12.0,,,,,,0
,2329.0,,2329.0,500.0,stim,single-stim-button,16,47033,0.0-15.0,dietary_decision,True,0,,Neutral,2329.0,taste_rating,wwmuffin,0.0,13.0,,,,,,0
,1976.0,,1976.0,500.0,stim,single-stim-button,17,49510,0.0-16.0,dietary_decision,True,0,,Very_Bad,1976.0,taste_rating,brocollincauliflower,-2.0,14.0,,,,,,0
,2580.0,,2580.0,500.0,stim,single-stim-button,18,52601,0.0-17.0,dietary_decision,True,0,,Neutral,2580.0,taste_rating,specialKbar,0.0,15.0,,,,,,0
,2246.0,,2246.0,500.0,stim,single-stim-button,19,55351,0.0-18.0,dietary_decision,True,0,,Good,2246.0,taste_rating,raisins,1.0,16.0,,,,,,0
,1884.0,,1884.0,500.0,stim,single-stim-button,20,57740,0.0-19.0,dietary_decision,True,0,,Good,1884.0,taste_rating,banana,1.0,17.0,,,,,,0
,3513.0,,3513.0,500.0,stim,single-stim-button,21,61755,0.0-20.0,dietary_decision,True,0,,Good,3513.0,taste_rating,wwbrownie,1.0,18.0,,,,,,0
,1986.0,,1986.0,500.0,stim,single-stim-button,22,64254,0.0-21.0,dietary_decision,True,0,,Very_Good,1986.0,taste_rating,cookiencream,2.0,19.0,,,,,,0
,2622.0,,2622.0,500.0,stim,single-stim-button,23,67386,0.0-22.0,dietary_decision,True,0,,Neutral,2622.0,taste_rating,Reeses,0.0,20.0,,,,,,0
,1343.0,,1343.0,500.0,stim,single-stim-button,24,69239,0.0-23.0,dietary_decision,True,0,,Good,1343.0,taste_rating,FlamingCheetos,1.0,21.0,,,,,,0
,1629.0,,1629.0,500.0,stim,single-stim-button,25,71382,0.0-24.0,dietary_decision,True,0,,Bad,1629.0,taste_rating,mixedyogart,-1.0,22.0,,,,,,0
,1379.0,,1379.0,500.0,stim,single-stim-button,26,73263,0.0-25.0,dietary_decision,True,0,,Bad,1379.0,taste_rating,sbcrackers,-1.0,23.0,,,,,,0
,2217.0,,2217.0,500.0,stim,single-stim-button,27,75985,0.0-26.0,dietary_decision,True,0,,Neutral,2217.0,taste_rating,ffraspsorbet,0.0,24.0,,,,,,0
,1543.0,,1543.0,500.0,stim,single-stim-button,28,78044,0.0-27.0,dietary_decision,True,0,,Good,1543.0,taste_rating,FamousAmos,1.0,25.0,,,,,,0
,1656.0,,1656.0,500.0,stim,single-stim-button,29,80204,0.0-28.0,dietary_decision,True,0,,Good,1656.0,taste_rating,butterfinger,1.0,26.0,,,,,,0
,1562.0,,1562.0,500.0,stim,single-stim-button,30,82274,0.0-29.0,dietary_decision,True,0,,Good,1562.0,taste_rating,sbdietbar,1.0,27.0,,,,,,0
,2958.0,,2958.0,500.0,stim,single-stim-button,31,85746,0.0-30.0,dietary_decision,True,0,,Good,2958.0,taste_rating,cookies,1.0,28.0,,,,,,0
,1377.0,,1377.0,500.0,stim,single-stim-button,32,87634,0.0-31.0,dietary_decision,True,0,,Good,1377.0,taste_rating,grannysmith,1.0,29.0,,,,,,0
,2737.0,,2737.0,500.0,stim,single-stim-button,33,90887,0.0-32.0,dietary_decision,True,0,,Good,2737.0,taste_rating,strussel,1.0,30.0,,,,,,0
,1714.0,,1714.0,500.0,stim,single-stim-button,34,93116,0.0-33.0,dietary_decision,True,0,,Neutral,1714.0,taste_rating,ruffles,0.0,31.0,,,,,,0
,1531.0,,1531.0,500.0,stim,single-stim-button,35,95161,0.0-34.0,dietary_decision,True,0,,Very_Good,1531.0,taste_rating,uTwix,2.0,32.0,,,,,,0
,1636.0,,1636.0,500.0,stim,single-stim-button,36,97300,0.0-35.0,dietary_decision,True,0,,Good,1636.0,taste_rating,ChipsAhoy,1.0,33.0,,,,,,0
,3455.0,,3455.0,500.0,stim,single-stim-button,37,101271,0.0-36.0,dietary_decision,True,0,,Very_Bad,3455.0,taste_rating,carrots,-2.0,34.0,,,,,,0
,2078.0,,2078.0,500.0,stim,single-stim-button,38,103852,0.0-37.0,dietary_decision,True,0,,Good,2078.0,taste_rating,laysclassic,1.0,35.0,,,,,,0
,1951.0,,1951.0,500.0,stim,single-stim-button,39,106307,0.0-38.0,dietary_decision,True,0,,Good,1951.0,taste_rating,uToberlorone,1.0,36.0,,,,,,0
,1592.0,,1592.0,500.0,stim,single-stim-button,40,108412,0.0-39.0,dietary_decision,True,0,,Good,1592.0,taste_rating,keeblerfudgestripes,1.0,37.0,,,,,,0
,1986.0,,1986.0,500.0,stim,single-stim-button,41,110904,0.0-40.0,dietary_decision,True,0,,Neutral,1986.0,taste_rating,blueberryyogart,0.0,38.0,,,,,,0
,1303.0,,1303.0,500.0,stim,single-stim-button,42,112710,0.0-41.0,dietary_decision,True,0,,Good,1303.0,taste_rating,Ghiradelli,1.0,39.0,,,,,,0
,1178.0,,1178.0,500.0,stim,single-stim-button,43,114390,0.0-42.0,dietary_decision,True,0,,Good,1178.0,taste_rating,100Grand,1.0,40.0,,,,,,0
,1097.0,,1097.0,500.0,stim,single-stim-button,44,115998,0.0-43.0,dietary_decision,True,0,,Good,1097.0,taste_rating,keeblerrainbow,1.0,41.0,,,,,,0
,1608.0,,1608.0,500.0,stim,single-stim-button,45,118106,0.0-44.0,dietary_decision,True,0,,Bad,1608.0,taste_rating,RiceKrispyTreat,-1.0,42.0,,,,,,0
,3033.0,,3033.0,500.0,stim,single-stim-button,46,121654,0.0-45.0,dietary_decision,True,0,,Bad,3033.0,taste_rating,wheatcrisps,-1.0,43.0,,,,,,0
,2463.0,,2463.0,500.0,stim,single-stim-button,47,124619,0.0-46.0,dietary_decision,True,0,,Very_Good,2463.0,taste_rating,Lindt,2.0,44.0,,,,,,0
,1591.0,,1591.0,500.0,stim,single-stim-button,48,126717,0.0-47.0,dietary_decision,True,0,,Good,1591.0,taste_rating,orangejello,1.0,45.0,,,,,,0
,1319.0,,1319.0,500.0,stim,single-stim-button,49,128550,0.0-48.0,dietary_decision,True,0,,Good,1319.0,taste_rating,strawberries,1.0,46.0,,,,,,0
,1527.0,,1527.0,500.0,stim,single-stim-button,50,130577,0.0-49.0,dietary_decision,True,0,,Neutral,1527.0,taste_rating,slimfastV,0.0,47.0,,,,,,0
,2305.0,,2305.0,500.0,stim,single-stim-button,51,133394,0.0-50.0,dietary_decision,True,0,,Good,2305.0,taste_rating,MrsFields,1.0,48.0,,,,,,0
,1701.0,,1701.0,500.0,stim,single-stim-button,52,135599,0.0-51.0,dietary_decision,True,0,,Good,1701.0,taste_rating,HoHo,1.0,49.0,,,,,,0
,1950.0,,1950.0,500.0,stim,single-stim-button,54,142394,0.0-53.0,dietary_decision,True,0,,Unhealthy,1950.0,health_rating,keeblerfudgestripes,-1.0,0.0,,,,,,0
,2615.0,,2615.0,500.0,stim,single-stim-button,55,145522,0.0-54.0,dietary_decision,True,0,,Healthy,2615.0,health_rating,specialKbar,1.0,1.0,,,,,,0
,1234.0,,1234.0,500.0,stim,single-stim-button,56,147271,0.0-55.0,dietary_decision,True,0,,Very_Healthy,1234.0,health_rating,brocollincauliflower,2.0,2.0,,,,,,0
,2408.0,,2408.0,500.0,stim,single-stim-button,57,150188,0.0-56.0,dietary_decision,True,0,,Healthy,2408.0,health_rating,ffraspsorbet,1.0,3.0,,,,,,0
,1974.0,,1974.0,500.0,stim,single-stim-button,58,152671,0.0-57.0,dietary_decision,True,0,,Very_Healthy,1974.0,health_rating,carrots,2.0,4.0,,,,,,0
,2210.0,,2210.0,500.0,stim,single-stim-button,59,155396,0.0-58.0,dietary_decision,True,0,,Neutral,2210.0,health_rating,strussel,0.0,5.0,,,,,,0
,1655.0,,1655.0,500.0,stim,single-stim-button,60,157555,0.0-59.0,dietary_decision,True,0,,Very_Healthy,1655.0,health_rating,reddelicious,2.0,6.0,,,,,,0
,786.0,,786.0,500.0,stim,single-stim-button,61,158846,0.0-60.0,dietary_decision,True,0,,Very_Healthy,786.0,health_rating,whitegrapes,2.0,7.0,,,,,,0
,1970.0,,1970.0,500.0,stim,single-stim-button,62,161326,0.0-61.0,dietary_decision,True,0,,Unhealthy,1970.0,health_rating,Ghiradelli,-1.0,8.0,,,,,,0
,2359.0,,2359.0,500.0,stim,single-stim-button,63,164194,0.0-62.0,dietary_decision,True,0,,Neutral,2359.0,health_rating,cranberries,0.0,9.0,,,,,,0
,1961.0,,1961.0,500.0,stim,single-stim-button,64,166660,0.0-63.0,dietary_decision,True,0,,Very_Unhealthy,1961.0,health_rating,uToberlorone,-2.0,10.0,,,,,,0
,1556.0,,1556.0,500.0,stim,single-stim-button,65,168721,0.0-64.0,dietary_decision,True,0,,Unhealthy,1556.0,health_rating,ChipsAhoy,-1.0,11.0,,,,,,0
,1280.0,,1280.0,500.0,stim,single-stim-button,66,170507,0.0-65.0,dietary_decision,True,0,,Unhealthy,1280.0,health_rating,FamousAmos,-1.0,12.0,,,,,,0
,1881.0,,1881.0,500.0,stim,single-stim-button,67,172899,0.0-66.0,dietary_decision,True,0,,Unhealthy,1881.0,health_rating,cookiencream,-1.0,13.0,,,,,,0
,1685.0,,1685.0,500.0,stim,single-stim-button,68,175092,0.0-67.0,dietary_decision,True,0,,Very_Healthy,1685.0,health_rating,orange,2.0,14.0,,,,,,0
,2169.0,,2169.0,500.0,stim,single-stim-button,69,177764,0.0-68.0,dietary_decision,True,0,,Healthy,2169.0,health_rating,frozenyogart,1.0,15.0,,,,,,0
,2509.0,,2509.0,500.0,stim,single-stim-button,70,180779,0.0-69.0,dietary_decision,True,0,,Very_Healthy,2509.0,health_rating,redgrapes,2.0,16.0,,,,,,0
,1313.0,,1313.0,500.0,stim,single-stim-button,72,187117,0.0-71.0,dietary_decision,True,0,,Very_Healthy,1313.0,health_rating,strawberries,2.0,18.0,,,,,,0
,1984.0,,1984.0,500.0,stim,single-stim-button,73,189602,0.0-72.0,dietary_decision,True,0,,Healthy,1984.0,health_rating,RiceKrispyTreat,1.0,19.0,,,,,,0
,1953.0,,1953.0,500.0,stim,single-stim-button,74,192060,0.0-73.0,dietary_decision,True,0,,Unhealthy,1953.0,health_rating,Reeses,-1.0,20.0,,,,,,0
,1784.0,,1784.0,500.0,stim,single-stim-button,75,194355,0.0-74.0,dietary_decision,True,0,,Unhealthy,1784.0,health_rating,icecreamsandwich,-1.0,21.0,,,,,,0
,1776.0,,1776.0,500.0,stim,single-stim-button,76,196639,0.0-75.0,dietary_decision,True,0,,Neutral,1776.0,health_rating,orangejello,0.0,22.0,,,,,,0
,1835.0,,1835.0,500.0,stim,single-stim-button,77,198990,0.0-76.0,dietary_decision,True,0,,Healthy,1835.0,health_rating,HoHo,1.0,23.0,,,,,,0
,1910.0,,1910.0,500.0,stim,single-stim-button,78,201405,0.0-77.0,dietary_decision,True,0,,Healthy,1910.0,health_rating,mixedyogart,1.0,24.0,,,,,,0
,1224.0,,1224.0,500.0,stim,single-stim-button,79,203144,0.0-78.0,dietary_decision,True,0,,Very_Healthy,1224.0,health_rating,banana,2.0,25.0,,,,,,0
,1838.0,,1838.0,500.0,stim,single-stim-button,80,205496,0.0-79.0,dietary_decision,True,0,,Very_Unhealthy,1838.0,health_rating,Doritosranch,-2.0,26.0,,,,,,0
,1779.0,,1779.0,500.0,stim,single-stim-button,81,207782,0.0-80.0,dietary_decision,True,0,,Neutral,1779.0,health_rating,MrsFields,0.0,27.0,,,,,,0
,2283.0,,2283.0,500.0,stim,single-stim-button,82,210573,0.0-81.0,dietary_decision,True,0,,Very_Unhealthy,2283.0,health_rating,FlamingCheetos,-2.0,28.0,,,,,,0
,1769.0,,1769.0,500.0,stim,single-stim-button,83,212854,0.0-82.0,dietary_decision,True,0,,Healthy,1769.0,health_rating,sbdietbar,1.0,29.0,,,,,,0
,2299.0,,2299.0,500.0,stim,single-stim-button,84,215665,0.0-83.0,dietary_decision,True,0,,Unhealthy,2299.0,health_rating,Lindt,-1.0,30.0,,,,,,0
,1752.0,,1752.0,500.0,stim,single-stim-button,85,217918,0.0-84.0,dietary_decision,True,0,,Healthy,1752.0,health_rating,raisins,1.0,31.0,,,,,,0
,2013.0,,2013.0,500.0,stim,single-stim-button,86,220440,0.0-85.0,dietary_decision,True,0,,Neutral,2013.0,health_rating,keeblerrainbow,0.0,32.0,,,,,,0
,2196.0,,2196.0,500.0,stim,single-stim-button,87,223144,0.0-86.0,dietary_decision,True,0,,Healthy,2196.0,health_rating,ruffles,1.0,33.0,,,,,,0
,2037.0,,2037.0,500.0,stim,single-stim-button,88,225690,0.0-87.0,dietary_decision,True,0,,Healthy,2037.0,health_rating,cellery,1.0,34.0,,,,,,0
,2118.0,,2118.0,500.0,stim,single-stim-button,89,228322,0.0-88.0,dietary_decision,True,0,,Very_Unhealthy,2118.0,health_rating,Oreos,-2.0,35.0,,,,,,0
,1460.0,,1460.0,500.0,stim,single-stim-button,90,230290,0.0-89.0,dietary_decision,True,0,,Neutral,1460.0,health_rating,slimfastV,0.0,36.0,,,,,,0
,1294.0,,1294.0,500.0,stim,single-stim-button,91,232100,0.0-90.0,dietary_decision,True,0,,Very_Healthy,1294.0,health_rating,grannysmith,2.0,37.0,,,,,,0
,1496.0,,1496.0,500.0,stim,single-stim-button,92,234103,0.0-91.0,dietary_decision,True,0,,Unhealthy,1496.0,health_rating,uTwix,-1.0,38.0,,,,,,0
,1380.0,,1380.0,500.0,stim,single-stim-button,93,235990,0.0-92.0,dietary_decision,True,0,,Unhealthy,1380.0,health_rating,laysclassic,-1.0,39.0,,,,,,0
,2455.0,,2455.0,500.0,stim,single-stim-button,94,238956,0.0-93.0,dietary_decision,True,0,,Healthy,2455.0,health_rating,cherryicecream,1.0,40.0,,,,,,0
,2086.0,,2086.0,500.0,stim,single-stim-button,95,241543,0.0-94.0,dietary_decision,True,0,,Healthy,2086.0,health_rating,wwmuffin,1.0,41.0,,,,,,0
,1570.0,,1570.0,500.0,stim,single-stim-button,96,243622,0.0-95.0,dietary_decision,True,0,,Neutral,1570.0,health_rating,butterfinger,0.0,42.0,,,,,,0
,1085.0,,1085.0,500.0,stim,single-stim-button,97,245214,0.0-96.0,dietary_decision,True,0,,Neutral,1085.0,health_rating,slimfastC,0.0,43.0,,,,,,0
,2179.0,,2179.0,500.0,stim,single-stim-button,98,247908,0.0-97.0,dietary_decision,True,0,,Unhealthy,2179.0,health_rating,cookies,-1.0,44.0,,,,,,0
,1895.0,,1895.0,500.0,stim,single-stim-button,99,250311,0.0-98.0,dietary_decision,True,0,,Healthy,1895.0,health_rating,wwbrownie,1.0,45.0,,,,,,0
,1899.0,,1899.0,500.0,stim,single-stim-button,100,252726,0.0-99.0,dietary_decision,True,0,,Very_Unhealthy,1899.0,health_rating,KitKat,-2.0,46.0,,,,,,0
,1868.0,,1868.0,500.0,stim,single-stim-button,101,255101,0.0-100.0,dietary_decision,True,0,,Healthy,1868.0,health_rating,sbcrackers,1.0,47.0,,,,,,0
,1870.0,,1870.0,500.0,stim,single-stim-button,102,257482,0.0-101.0,dietary_decision,True,0,,Healthy,1870.0,health_rating,blueberryyogart,1.0,48.0,,,,,,0
,1417.0,,1417.0,500.0,stim,single-stim-button,103,259412,0.0-102.0,dietary_decision,True,0,,Healthy,1417.0,health_rating,wheatcrisps,1.0,49.0,,,,,,0
,1331.0,,1331.0,500.0,stim,single-stim-button,106,276093,0.0-105.0,dietary_decision,True,0,,Yes,1331.0,decision,100Grand,1.0,0.0,wwbrownie,"{""taste"":1,""health"":""NaN""}","{""taste"":1,""health"":1}",,,0
,3116.0,,3116.0,500.0,stim,single-stim-button,107,279713,0.0-106.0,dietary_decision,True,0,,Yes,3116.0,decision,Ghiradelli,1.0,1.0,wwbrownie,"{""taste"":1,""health"":-1}","{""taste"":1,""health"":1}",,,0
,1823.0,,1823.0,500.0,stim,single-stim-button,108,282044,0.0-107.0,dietary_decision,True,0,,Yes,1823.0,decision,grannysmith,1.0,2.0,wwbrownie,"{""taste"":1,""health"":2}","{""taste"":1,""health"":1}",,,0
,1199.0,,1199.0,500.0,stim,single-stim-button,109,283747,0.0-108.0,dietary_decision,True,0,,Yes,1199.0,decision,icecreamsandwich,1.0,3.0,wwbrownie,"{""taste"":1,""health"":-1}","{""taste"":1,""health"":1}",,,0
,2567.0,,2567.0,500.0,stim,single-stim-button,110,286829,0.0-109.0,dietary_decision,True,0,,No,2567.0,decision,wheatcrisps,-1.0,4.0,wwbrownie,"{""taste"":-1,""health"":1}","{""taste"":1,""health"":1}",,,0
,2388.0,,2388.0,500.0,stim,single-stim-button,111,289723,0.0-110.0,dietary_decision,True,0,,No,2388.0,decision,slimfastC,-1.0,5.0,wwbrownie,"{""taste"":-1,""health"":0}","{""taste"":1,""health"":1}",,,0
,1337.0,,1337.0,500.0,stim,single-stim-button,112,291572,0.0-111.0,dietary_decision,True,0,,Strong_Yes,1337.0,decision,laysclassic,2.0,6.0,wwbrownie,"{""taste"":1,""health"":-1}","{""taste"":1,""health"":1}",,,0
,1943.0,,1943.0,500.0,stim,single-stim-button,113,294031,0.0-112.0,dietary_decision,True,0,,Strong_No,1943.0,decision,blueberryyogart,-2.0,7.0,wwbrownie,"{""taste"":0,""health"":1}","{""taste"":1,""health"":1}",,,0
,1822.0,,1822.0,500.0,stim,single-stim-button,114,296357,0.0-113.0,dietary_decision,True,0,,Strong_No,1822.0,decision,cellery,-2.0,8.0,wwbrownie,"{""taste"":0,""health"":1}","{""taste"":1,""health"":1}",,,0
,1399.0,,1399.0,500.0,stim,single-stim-button,115,298263,0.0-114.0,dietary_decision,True,0,,Strong_Yes,1399.0,decision,cookiencream,2.0,9.0,wwbrownie,"{""taste"":2,""health"":-1}","{""taste"":1,""health"":1}",,,0
,1463.0,,1463.0,500.0,stim,single-stim-button,116,300228,0.0-115.0,dietary_decision,True,0,,Yes,1463.0,decision,redgrapes,1.0,10.0,wwbrownie,"{""taste"":1,""health"":2}","{""taste"":1,""health"":1}",,,0
,1799.0,,1799.0,500.0,stim,single-stim-button,117,302530,0.0-116.0,dietary_decision,True,0,,No,1799.0,decision,cranberries,-1.0,11.0,wwbrownie,"{""taste"":1,""health"":0}","{""taste"":1,""health"":1}",,,0
,3302.0,,3302.0,500.0,stim,single-stim-button,118,306336,0.0-117.0,dietary_decision,True,0,,Yes,3302.0,decision,sbcrackers,1.0,12.0,wwbrownie,"{""taste"":-1,""health"":1}","{""taste"":1,""health"":1}",,,0
,1589.0,,1589.0,500.0,stim,single-stim-button,119,308427,0.0-118.0,dietary_decision,True,0,,Yes,1589.0,decision,orangejello,1.0,13.0,wwbrownie,"{""taste"":1,""health"":0}","{""taste"":1,""health"":1}",,,0
,2088.0,,2088.0,500.0,stim,single-stim-button,120,311028,0.0-119.0,dietary_decision,True,0,,Yes,2088.0,decision,raisins,1.0,14.0,wwbrownie,"{""taste"":1,""health"":1}","{""taste"":1,""health"":1}",,,0
,1752.0,,1752.0,500.0,stim,single-stim-button,121,313293,0.0-120.0,dietary_decision,True,0,,Neutral,1752.0,decision,ruffles,0.0,15.0,wwbrownie,"{""taste"":0,""health"":1}","{""taste"":1,""health"":1}",,,0
,1648.0,,1648.0,500.0,stim,single-stim-button,122,315446,0.0-121.0,dietary_decision,True,0,,Yes,1648.0,decision,whitegrapes,1.0,16.0,wwbrownie,"{""taste"":1,""health"":2}","{""taste"":1,""health"":1}",,,0
,1417.0,,1417.0,500.0,stim,single-stim-button,123,317368,0.0-122.0,dietary_decision,True,0,,Strong_Yes,1417.0,decision,Oreos,2.0,17.0,wwbrownie,"{""taste"":""NaN"",""health"":-2}","{""taste"":1,""health"":1}",,,0
,2304.0,,2304.0,500.0,stim,single-stim-button,124,320180,0.0-123.0,dietary_decision,True,0,,Neutral,2304.0,decision,cherryicecream,0.0,18.0,wwbrownie,"{""taste"":1,""health"":1}","{""taste"":1,""health"":1}",,,0
,2761.0,,2761.0,500.0,stim,single-stim-button,125,323455,0.0-124.0,dietary_decision,True,0,,Strong_No,2761.0,decision,RiceKrispyTreat,-2.0,19.0,wwbrownie,"{""taste"":-1,""health"":1}","{""taste"":1,""health"":1}",,,0
,1301.0,,1301.0,500.0,stim,single-stim-button,126,325261,0.0-125.0,dietary_decision,True,0,,Yes,1301.0,decision,strawberries,1.0,20.0,wwbrownie,"{""taste"":1,""health"":2}","{""taste"":1,""health"":1}",,,0
,1494.0,,1494.0,500.0,stim,single-stim-button,127,327270,0.0-126.0,dietary_decision,True,0,,Yes,1494.0,decision,orange,1.0,21.0,wwbrownie,"{""taste"":1,""health"":2}","{""taste"":1,""health"":1}",,,0
,2710.0,,2710.0,500.0,stim,single-stim-button,128,330493,0.0-127.0,dietary_decision,True,0,,Yes,2710.0,decision,FamousAmos,1.0,22.0,wwbrownie,"{""taste"":1,""health"":-1}","{""taste"":1,""health"":1}",,,0
,2071.0,,2071.0,500.0,stim,single-stim-button,129,333076,0.0-128.0,dietary_decision,True,0,,Neutral,2071.0,decision,sbdietbar,0.0,23.0,wwbrownie,"{""taste"":1,""health"":1}","{""taste"":1,""health"":1}",,,0
,1239.0,,1239.0,500.0,stim,single-stim-button,130,334828,0.0-129.0,dietary_decision,True,0,,Yes,1239.0,decision,banana,1.0,24.0,wwbrownie,"{""taste"":1,""health"":2}","{""taste"":1,""health"":1}",,,0
,1641.0,,1641.0,500.0,stim,single-stim-button,131,336980,0.0-130.0,dietary_decision,True,0,,No,1641.0,decision,specialKbar,-1.0,25.0,wwbrownie,"{""taste"":0,""health"":1}","{""taste"":1,""health"":1}",,,0
,1590.0,,1590.0,500.0,stim,single-stim-button,132,339086,0.0-131.0,dietary_decision,True,0,,Neutral,1590.0,decision,butterfinger,0.0,26.0,wwbrownie,"{""taste"":1,""health"":0}","{""taste"":1,""health"":1}",,,0
,1448.0,,1448.0,500.0,stim,single-stim-button,133,341042,0.0-132.0,dietary_decision,True,0,,Yes,1448.0,decision,uTwix,1.0,27.0,wwbrownie,"{""taste"":2,""health"":-1}","{""taste"":1,""health"":1}",,,0
,1885.0,,1885.0,500.0,stim,single-stim-button,134,343433,0.0-133.0,dietary_decision,True,0,,No,1885.0,decision,keeblerfudgestripes,-1.0,28.0,wwbrownie,"{""taste"":1,""health"":-1}","{""taste"":1,""health"":1}",,,0
,1265.0,,1265.0,500.0,stim,single-stim-button,135,345209,0.0-134.0,dietary_decision,True,0,,No,1265.0,decision,mixedyogart,-1.0,29.0,wwbrownie,"{""taste"":-1,""health"":1}","{""taste"":1,""health"":1}",,,0
,1819.0,,1819.0,500.0,stim,single-stim-button,136,347535,0.0-135.0,dietary_decision,True,0,,Strong_No,1819.0,decision,brocollincauliflower,-2.0,30.0,wwbrownie,"{""taste"":-2,""health"":2}","{""taste"":1,""health"":1}",,,0
,1554.0,,1554.0,500.0,stim,single-stim-button,137,349598,0.0-136.0,dietary_decision,True,0,,No,1554.0,decision,ffraspsorbet,-1.0,31.0,wwbrownie,"{""taste"":0,""health"":1}","{""taste"":1,""health"":1}",,,0
,1255.0,,1255.0,500.0,stim,single-stim-button,138,351363,0.0-137.0,dietary_decision,True,0,,No,1255.0,decision,Reeses,-1.0,32.0,wwbrownie,"{""taste"":0,""health"":-1}","{""taste"":1,""health"":1}",,,0
,2607.0,,2607.0,500.0,stim,single-stim-button,139,354472,0.0-138.0,dietary_decision,True,0,,Strong_No,2607.0,decision,carrots,-2.0,33.0,wwbrownie,"{""taste"":-2,""health"":2}","{""taste"":1,""health"":1}",,,0
,1995.0,,1995.0,500.0,stim,single-stim-button,140,356973,0.0-139.0,dietary_decision,True,0,,No,1995.0,decision,strussel,-1.0,34.0,wwbrownie,"{""taste"":1,""health"":0}","{""taste"":1,""health"":1}",,,0
,1557.0,,1557.0,500.0,stim,single-stim-button,141,359034,0.0-140.0,dietary_decision,True,0,,Strong_No,1557.0,decision,FlamingCheetos,-2.0,35.0,wwbrownie,"{""taste"":1,""health"":-2}","{""taste"":1,""health"":1}",,,0
,1959.0,,1959.0,500.0,stim,single-stim-button,142,361500,0.0-141.0,dietary_decision,True,0,,No,1959.0,decision,HoHo,-1.0,36.0,wwbrownie,"{""taste"":1,""health"":1}","{""taste"":1,""health"":1}",,,0
,1510.0,,1510.0,500.0,stim,single-stim-button,143,363520,0.0-142.0,dietary_decision,True,0,,No,1510.0,decision,slimfastV,-1.0,37.0,wwbrownie,"{""taste"":0,""health"":0}","{""taste"":1,""health"":1}",,,0
,2002.0,,2002.0,500.0,stim,single-stim-button,144,366034,0.0-143.0,dietary_decision,True,0,,No,2002.0,decision,keeblerrainbow,-1.0,38.0,wwbrownie,"{""taste"":1,""health"":0}","{""taste"":1,""health"":1}",,,0
,2756.0,,2756.0,500.0,stim,single-stim-button,145,369298,0.0-144.0,dietary_decision,True,0,,Yes,2756.0,decision,reddelicious,1.0,39.0,wwbrownie,"{""taste"":1,""health"":2}","{""taste"":1,""health"":1}",,,0
,1630.0,,1630.0,500.0,stim,single-stim-button,146,371442,0.0-145.0,dietary_decision,True,0,,Yes,1630.0,decision,Lindt,1.0,40.0,wwbrownie,"{""taste"":2,""health"":-1}","{""taste"":1,""health"":1}",,,0
,1475.0,,1475.0,500.0,stim,single-stim-button,147,373430,0.0-146.0,dietary_decision,True,0,,Neutral,1475.0,decision,MrsFields,0.0,41.0,wwbrownie,"{""taste"":1,""health"":0}","{""taste"":1,""health"":1}",,,0
,1356.0,,1356.0,500.0,stim,single-stim-button,148,375292,0.0-147.0,dietary_decision,True,0,,Yes,1356.0,decision,uToberlorone,1.0,42.0,wwbrownie,"{""taste"":1,""health"":-2}","{""taste"":1,""health"":1}",,,0
,1748.0,,1748.0,500.0,stim,single-stim-button,149,377556,0.0-148.0,dietary_decision,True,0,,No,1748.0,decision,frozenyogart,-1.0,43.0,wwbrownie,"{""taste"":1,""health"":1}","{""taste"":1,""health"":1}",,,0
,2152.0,,2152.0,500.0,stim,single-stim-button,150,380221,0.0-149.0,dietary_decision,True,0,,Yes,2152.0,decision,cookies,1.0,44.0,wwbrownie,"{""taste"":1,""health"":-1}","{""taste"":1,""health"":1}",,,0
,1475.0,,1475.0,500.0,stim,single-stim-button,151,382201,0.0-150.0,dietary_decision,True,0,,Strong_Yes,1475.0,decision,KitKat,2.0,45.0,wwbrownie,"{""taste"":2,""health"":-2}","{""taste"":1,""health"":1}",,,0
,1508.0,,1508.0,500.0,stim,single-stim-button,152,384220,0.0-151.0,dietary_decision,True,0,,Yes,1508.0,decision,Doritosranch,1.0,46.0,wwbrownie,"{""taste"":1,""health"":-2}","{""taste"":1,""health"":1}",,,0
,2955.0,,2955.0,500.0,stim,single-stim-button,153,387680,0.0-152.0,dietary_decision,True,0,,Neutral,2955.0,decision,wwmuffin,0.0,47.0,wwbrownie,"{""taste"":0,""health"":1}","{""taste"":1,""health"":1}",,,0
,2307.0,,2307.0,500.0,stim,single-stim-button,154,390492,0.0-153.0,dietary_decision,True,0,,Yes,2307.0,decision,ChipsAhoy,1.0,48.0,wwbrownie,"{""taste"":1,""health"":-1}","{""taste"":1,""health"":1}",,,0
,2064.0,,2064.0,500.0,stim,single-stim-button,5,37163,0.0-4.0,dietary_decision,True,0,,Very_Good,2064.0,taste_rating,banana,2.0,2.0,,,,,,1
,3240.0,,3240.0,500.0,stim,single-stim-button,6,40914,0.0-5.0,dietary_decision,True,0,,Good,3240.0,taste_rating,cellery,1.0,3.0,,,,,,1
,2829.0,,2829.0,500.0,stim,single-stim-button,7,44245,0.0-6.0,dietary_decision,True,0,,Very_Good,2829.0,taste_rating,ffraspsorbet,2.0,4.0,,,,,,1
,1427.0,,1427.0,500.0,stim,single-stim-button,8,46187,0.0-7.0,dietary_decision,True,0,,Very_Good,1427.0,taste_rating,cherryicecream,2.0,5.0,,,,,,1
,2959.0,,2959.0,500.0,stim,single-stim-button,9,49651,0.0-8.0,dietary_decision,True,0,,Neutral,2959.0,taste_rating,sbcrackers,0.0,6.0,,,,,,1
,2213.0,,2213.0,500.0,stim,single-stim-button,10,52366,0.0-9.0,dietary_decision,True,0,,Very_Good,2213.0,taste_rating,cranberries,2.0,7.0,,,,,,1
,1410.0,,1410.0,500.0,stim,single-stim-button,11,54287,0.0-10.0,dietary_decision,True,0,,Very_Good,1410.0,taste_rating,HoHo,2.0,8.0,,,,,,1
,2126.0,,2126.0,500.0,stim,single-stim-button,12,56918,0.0-11.0,dietary_decision,True,0,,Good,2126.0,taste_rating,redgrapes,1.0,9.0,,,,,,1
,2325.0,,2325.0,500.0,stim,single-stim-button,13,59745,0.0-12.0,dietary_decision,True,0,,Good,2325.0,taste_rating,RiceKrispyTreat,1.0,10.0,,,,,,1
,1955.0,,1955.0,500.0,stim,single-stim-button,14,62210,0.0-13.0,dietary_decision,True,0,,Neutral,1955.0,taste_rating,strawberries,0.0,11.0,,,,,,1
,2758.0,,2758.0,500.0,stim,single-stim-button,15,65479,0.0-14.0,dietary_decision,True,0,,Good,2758.0,taste_rating,wwbrownie,1.0,12.0,,,,,,1
,3717.0,,3717.0,500.0,stim,single-stim-button,16,69703,0.0-15.0,dietary_decision,True,0,,Neutral,3717.0,taste_rating,FlamingCheetos,0.0,13.0,,,,,,1
,1864.0,,1864.0,500.0,stim,single-stim-button,17,72071,0.0-16.0,dietary_decision,True,0,,Very_Good,1864.0,taste_rating,frozenyogart,2.0,14.0,,,,,,1
,3841.0,,3841.0,500.0,stim,single-stim-button,18,76425,0.0-17.0,dietary_decision,True,0,,Very_Good,3841.0,taste_rating,reddelicious,2.0,15.0,,,,,,1
,1731.0,,1731.0,500.0,stim,single-stim-button,19,78669,0.0-18.0,dietary_decision,True,0,,Very_Good,1731.0,taste_rating,whitegrapes,2.0,16.0,,,,,,1
,3191.0,,3191.0,500.0,stim,single-stim-button,20,82364,0.0-19.0,dietary_decision,True,0,,Good,3191.0,taste_rating,raisins,1.0,17.0,,,,,,1
,1991.0,,1991.0,500.0,stim,single-stim-button,21,84861,0.0-20.0,dietary_decision,True,0,,Neutral,1991.0,taste_rating,strussel,0.0,18.0,,,,,,1
,3245.0,,3245.0,500.0,stim,single-stim-button,22,88612,0.0-21.0,dietary_decision,True,0,,Good,3245.0,taste_rating,keeblerrainbow,1.0,19.0,,,,,,1
,1968.0,,1968.0,500.0,stim,single-stim-button,23,91094,0.0-22.0,dietary_decision,True,0,,Neutral,1968.0,taste_rating,mixedyogart,0.0,20.0,,,,,,1
,1412.0,,1412.0,500.0,stim,single-stim-button,24,93013,0.0-23.0,dietary_decision,True,0,,Very_Good,1412.0,taste_rating,Ghiradelli,2.0,21.0,,,,,,1
,1613.0,,1613.0,500.0,stim,single-stim-button,25,95129,0.0-24.0,dietary_decision,True,0,,Good,1613.0,taste_rating,brocollincauliflower,1.0,22.0,,,,,,1
,1006.0,,1006.0,500.0,stim,single-stim-button,26,96647,0.0-25.0,dietary_decision,True,0,,Good,1006.0,taste_rating,FamousAmos,1.0,23.0,,,,,,1
,1410.0,,1410.0,500.0,stim,single-stim-button,27,98561,0.0-26.0,dietary_decision,True,0,,Good,1410.0,taste_rating,grannysmith,1.0,24.0,,,,,,1
,987.0,,987.0,500.0,stim,single-stim-button,28,100054,0.0-27.0,dietary_decision,True,0,,Good,987.0,taste_rating,specialKbar,1.0,25.0,,,,,,1
,1146.0,,1146.0,500.0,stim,single-stim-button,29,101712,0.0-28.0,dietary_decision,True,0,,Good,1146.0,taste_rating,cookiencream,1.0,26.0,,,,,,1
,2112.0,,2112.0,500.0,stim,single-stim-button,30,104337,0.0-29.0,dietary_decision,True,0,,Good,2112.0,taste_rating,blueberryyogart,1.0,27.0,,,,,,1
,788.0,,788.0,500.0,stim,single-stim-button,31,105629,0.0-30.0,dietary_decision,True,0,,Good,788.0,taste_rating,ChipsAhoy,1.0,28.0,,,,,,1
,1677.0,,1677.0,500.0,stim,single-stim-button,32,107811,0.0-31.0,dietary_decision,True,0,,Good,1677.0,taste_rating,keeblerfudgestripes,1.0,29.0,,,,,,1
,1813.0,,1813.0,500.0,stim,single-stim-button,33,110137,0.0-32.0,dietary_decision,True,0,,Neutral,1813.0,taste_rating,ruffles,0.0,30.0,,,,,,1
,1495.0,,1495.0,500.0,stim,single-stim-button,34,112135,0.0-33.0,dietary_decision,True,0,,Very_Good,1495.0,taste_rating,Oreos,2.0,31.0,,,,,,1
,1211.0,,1211.0,500.0,stim,single-stim-button,35,113859,0.0-34.0,dietary_decision,True,0,,Very_Good,1211.0,taste_rating,icecreamsandwich,2.0,32.0,,,,,,1
,1667.0,,1667.0,500.0,stim,single-stim-button,36,116029,0.0-35.0,dietary_decision,True,0,,Neutral,1667.0,taste_rating,uTwix,0.0,33.0,,,,,,1
,2662.0,,2662.0,500.0,stim,single-stim-button,37,119196,0.0-36.0,dietary_decision,True,0,,Very_Good,2662.0,taste_rating,orange,2.0,34.0,,,,,,1
,1560.0,,1560.0,500.0,stim,single-stim-button,38,121261,0.0-37.0,dietary_decision,True,0,,Very_Good,1560.0,taste_rating,Reeses,2.0,35.0,,,,,,1
,911.0,,911.0,500.0,stim,single-stim-button,39,122679,0.0-38.0,dietary_decision,True,0,,Very_Good,911.0,taste_rating,slimfastV,2.0,36.0,,,,,,1
,1012.0,,1012.0,500.0,stim,single-stim-button,40,124204,0.0-39.0,dietary_decision,True,0,,Very_Good,1012.0,taste_rating,Lindt,2.0,37.0,,,,,,1
,922.0,,922.0,500.0,stim,single-stim-button,41,125637,0.0-40.0,dietary_decision,True,0,,Very_Good,922.0,taste_rating,KitKat,2.0,38.0,,,,,,1
,1329.0,,1329.0,500.0,stim,single-stim-button,42,127469,0.0-41.0,dietary_decision,True,0,,Very_Good,1329.0,taste_rating,orangejello,2.0,39.0,,,,,,1
,1203.0,,1203.0,500.0,stim,single-stim-button,43,129177,0.0-42.0,dietary_decision,True,0,,Very_Good,1203.0,taste_rating,MrsFields,2.0,40.0,,,,,,1
,644.0,,644.0,500.0,stim,single-stim-button,44,130329,0.0-43.0,dietary_decision,True,0,,Very_Good,644.0,taste_rating,butterfinger,2.0,41.0,,,,,,1
,855.0,,855.0,500.0,stim,single-stim-button,45,131694,0.0-44.0,dietary_decision,True,0,,Good,855.0,taste_rating,Doritosranch,1.0,42.0,,,,,,1
,1115.0,,1115.0,500.0,stim,single-stim-button,46,133315,0.0-45.0,dietary_decision,True,0,,Very_Good,1115.0,taste_rating,wwmuffin,2.0,43.0,,,,,,1
,902.0,,902.0,500.0,stim,single-stim-button,47,134721,0.0-46.0,dietary_decision,True,0,,Good,902.0,taste_rating,slimfastC,1.0,44.0,,,,,,1
,1856.0,,1856.0,500.0,stim,single-stim-button,48,137079,0.0-47.0,dietary_decision,True,0,,Good,1856.0,taste_rating,carrots,1.0,45.0,,,,,,1
,1094.0,,1094.0,500.0,stim,single-stim-button,49,138687,0.0-48.0,dietary_decision,True,0,,Good,1094.0,taste_rating,cookies,1.0,46.0,,,,,,1
,762.0,,762.0,500.0,stim,single-stim-button,50,139953,0.0-49.0,dietary_decision,True,0,,Good,762.0,taste_rating,100Grand,1.0,47.0,,,,,,1
,728.0,,728.0,500.0,stim,single-stim-button,51,141184,0.0-50.0,dietary_decision,True,0,,Good,728.0,taste_rating,laysclassic,1.0,48.0,,,,,,1
,833.0,,833.0,500.0,stim,single-stim-button,52,142529,0.0-51.0,dietary_decision,True,0,,Good,833.0,taste_rating,sbdietbar,1.0,49.0,,,,,,1
,2434.0,,2434.0,500.0,stim,single-stim-button,54,151475,0.0-53.0,dietary_decision,True,0,,Healthy,2434.0,health_rating,whitegrapes,1.0,0.0,,,,,,1
,2344.0,,2344.0,500.0,stim,single-stim-button,55,154334,0.0-54.0,dietary_decision,True,0,,Neutral,2344.0,health_rating,cherryicecream,0.0,1.0,,,,,,1
,2845.0,,2845.0,500.0,stim,single-stim-button,56,157696,0.0-55.0,dietary_decision,True,0,,Neutral,2845.0,health_rating,wheatcrisps,0.0,2.0,,,,,,1
,1305.0,,1305.0,500.0,stim,single-stim-button,57,159506,0.0-56.0,dietary_decision,True,0,,Neutral,1305.0,health_rating,mixedyogart,0.0,3.0,,,,,,1
,1614.0,,1614.0,500.0,stim,single-stim-button,58,161622,0.0-57.0,dietary_decision,True,0,,Neutral,1614.0,health_rating,strussel,0.0,4.0,,,,,,1
,1067.0,,1067.0,500.0,stim,single-stim-button,59,163195,0.0-58.0,dietary_decision,True,0,,Neutral,1067.0,health_rating,FamousAmos,0.0,5.0,,,,,,1
,1435.0,,1435.0,500.0,stim,single-stim-button,60,165136,0.0-59.0,dietary_decision,True,0,,Neutral,1435.0,health_rating,uTwix,0.0,6.0,,,,,,1
,998.0,,998.0,500.0,stim,single-stim-button,61,166639,0.0-60.0,dietary_decision,True,0,,Neutral,998.0,health_rating,slimfastV,0.0,7.0,,,,,,1
,1296.0,,1296.0,500.0,stim,single-stim-button,62,168440,0.0-61.0,dietary_decision,True,0,,Neutral,1296.0,health_rating,carrots,0.0,8.0,,,,,,1
,1228.0,,1228.0,500.0,stim,single-stim-button,63,170170,0.0-62.0,dietary_decision,True,0,,Neutral,1228.0,health_rating,cellery,0.0,9.0,,,,,,1
,1629.0,,1629.0,500.0,stim,single-stim-button,64,172311,0.0-63.0,dietary_decision,True,0,,Healthy,1629.0,health_rating,frozenyogart,1.0,10.0,,,,,,1
,1505.0,,1505.0,500.0,stim,single-stim-button,65,174321,0.0-64.0,dietary_decision,True,0,,Neutral,1505.0,health_rating,wwbrownie,0.0,11.0,,,,,,1
,995.0,,995.0,500.0,stim,single-stim-button,66,175830,0.0-65.0,dietary_decision,True,0,,Neutral,995.0,health_rating,sbcrackers,0.0,12.0,,,,,,1
,1744.0,,1744.0,500.0,stim,single-stim-button,67,178086,0.0-66.0,dietary_decision,True,0,,Unhealthy,1744.0,health_rating,FlamingCheetos,-1.0,13.0,,,,,,1
,1122.0,,1122.0,500.0,stim,single-stim-button,68,179713,0.0-67.0,dietary_decision,True,0,,Unhealthy,1122.0,health_rating,Doritosranch,-1.0,14.0,,,,,,1
,2423.0,,2423.0,500.0,stim,single-stim-button,69,182645,0.0-68.0,dietary_decision,True,0,,Healthy,2423.0,health_rating,specialKbar,1.0,15.0,,,,,,1
,1328.0,,1328.0,500.0,stim,single-stim-button,70,184487,0.0-69.0,dietary_decision,True,0,,Healthy,1328.0,health_rating,cookies,1.0,16.0,,,,,,1
,1496.0,,1496.0,500.0,stim,single-stim-button,71,186496,0.0-70.0,dietary_decision,True,0,,Healthy,1496.0,health_rating,butterfinger,1.0,17.0,,,,,,1
,1958.0,,1958.0,500.0,stim,single-stim-button,72,188962,0.0-71.0,dietary_decision,True,0,,Healthy,1958.0,health_rating,brocollincauliflower,1.0,18.0,,,,,,1
,3153.0,,3153.0,500.0,stim,single-stim-button,73,192620,0.0-72.0,dietary_decision,True,0,,Neutral,3153.0,health_rating,orangejello,0.0,19.0,,,,,,1
,1606.0,,1606.0,500.0,stim,single-stim-button,74,194730,0.0-73.0,dietary_decision,True,0,,Healthy,1606.0,health_rating,keeblerrainbow,1.0,20.0,,,,,,1
,1992.0,,1992.0,500.0,stim,single-stim-button,75,197227,0.0-74.0,dietary_decision,True,0,,Neutral,1992.0,health_rating,Reeses,0.0,21.0,,,,,,1
,1188.0,,1188.0,500.0,stim,single-stim-button,76,198928,0.0-75.0,dietary_decision,True,0,,Neutral,1188.0,health_rating,cranberries,0.0,22.0,,,,,,1
,1032.0,,1032.0,500.0,stim,single-stim-button,77,200469,0.0-76.0,dietary_decision,True,0,,Neutral,1032.0,health_rating,reddelicious,0.0,23.0,,,,,,1
,1600.0,,1600.0,500.0,stim,single-stim-button,78,202582,0.0-77.0,dietary_decision,True,0,,Healthy,1600.0,health_rating,ChipsAhoy,1.0,24.0,,,,,,1
,1422.0,,1422.0,500.0,stim,single-stim-button,79,204513,0.0-78.0,dietary_decision,True,0,,Healthy,1422.0,health_rating,KitKat,1.0,25.0,,,,,,1
,2944.0,,2944.0,500.0,stim,single-stim-button,80,207961,0.0-79.0,dietary_decision,True,0,,Healthy,2944.0,health_rating,blueberryyogart,1.0,26.0,,,,,,1
,1451.0,,1451.0,500.0,stim,single-stim-button,82,214436,0.0-81.0,dietary_decision,True,0,,Neutral,1451.0,health_rating,HoHo,0.0,28.0,,,,,,1
,2052.0,,2052.0,500.0,stim,single-stim-button,83,217002,0.0-82.0,dietary_decision,True,0,,Unhealthy,2052.0,health_rating,Ghiradelli,-1.0,29.0,,,,,,1
,1479.0,,1479.0,500.0,stim,single-stim-button,84,218985,0.0-83.0,dietary_decision,True,0,,Unhealthy,1479.0,health_rating,ruffles,-1.0,30.0,,,,,,1
,1411.0,,1411.0,500.0,stim,single-stim-button,85,220912,0.0-84.0,dietary_decision,True,0,,Unhealthy,1411.0,health_rating,ffraspsorbet,-1.0,31.0,,,,,,1
,1528.0,,1528.0,500.0,stim,single-stim-button,86,222944,0.0-85.0,dietary_decision,True,0,,Neutral,1528.0,health_rating,wwmuffin,0.0,32.0,,,,,,1
,1404.0,,1404.0,500.0,stim,single-stim-button,87,224861,0.0-86.0,dietary_decision,True,0,,Neutral,1404.0,health_rating,icecreamsandwich,0.0,33.0,,,,,,1
,1314.0,,1314.0,500.0,stim,single-stim-button,89,231191,0.0-88.0,dietary_decision,True,0,,Healthy,1314.0,health_rating,keeblerfudgestripes,1.0,35.0,,,,,,1
,1374.0,,1374.0,500.0,stim,single-stim-button,90,233078,0.0-89.0,dietary_decision,True,0,,Healthy,1374.0,health_rating,100Grand,1.0,36.0,,,,,,1
,928.0,,928.0,500.0,stim,single-stim-button,91,234518,0.0-90.0,dietary_decision,True,0,,Healthy,928.0,health_rating,RiceKrispyTreat,1.0,37.0,,,,,,1
,1843.0,,1843.0,500.0,stim,single-stim-button,92,236870,0.0-91.0,dietary_decision,True,0,,Unhealthy,1843.0,health_rating,laysclassic,-1.0,38.0,,,,,,1
,1271.0,,1271.0,500.0,stim,single-stim-button,93,238646,0.0-92.0,dietary_decision,True,0,,Healthy,1271.0,health_rating,cookiencream,1.0,39.0,,,,,,1
,2182.0,,2182.0,500.0,stim,single-stim-button,94,241341,0.0-93.0,dietary_decision,True,0,,Healthy,2182.0,health_rating,redgrapes,1.0,40.0,,,,,,1
,3075.0,,3075.0,500.0,stim,single-stim-button,95,244920,0.0-94.0,dietary_decision,True,0,,Unhealthy,3075.0,health_rating,strawberries,-1.0,41.0,,,,,,1
,1389.0,,1389.0,500.0,stim,single-stim-button,96,246821,0.0-95.0,dietary_decision,True,0,,Unhealthy,1389.0,health_rating,orange,-1.0,42.0,,,,,,1
,1219.0,,1219.0,500.0,stim,single-stim-button,97,248542,0.0-96.0,dietary_decision,True,0,,Healthy,1219.0,health_rating,banana,1.0,43.0,,,,,,1
,1189.0,,1189.0,500.0,stim,single-stim-button,98,250238,0.0-97.0,dietary_decision,True,0,,Healthy,1189.0,health_rating,MrsFields,1.0,44.0,,,,,,1
,836.0,,836.0,500.0,stim,single-stim-button,99,251585,0.0-98.0,dietary_decision,True,0,,Healthy,836.0,health_rating,uToberlorone,1.0,45.0,,,,,,1
,910.0,,910.0,500.0,stim,single-stim-button,100,253003,0.0-99.0,dietary_decision,True,0,,Healthy,910.0,health_rating,slimfastC,1.0,46.0,,,,,,1
,745.0,,745.0,500.0,stim,single-stim-button,101,254252,0.0-100.0,dietary_decision,True,0,,Healthy,745.0,health_rating,sbdietbar,1.0,47.0,,,,,,1
,602.0,,602.0,500.0,stim,single-stim-button,102,255360,0.0-101.0,dietary_decision,True,0,,Healthy,602.0,health_rating,raisins,1.0,48.0,,,,,,1
,506.0,,506.0,500.0,stim,single-stim-button,103,256378,0.0-102.0,dietary_decision,True,0,,Healthy,506.0,health_rating,Oreos,1.0,49.0,,,,,,1
,1955.0,,1955.0,500.0,stim,single-stim-button,106,284970,0.0-105.0,dietary_decision,True,0,,No,1955.0,decision,Doritosranch,-1.0,0.0,FamousAmos,"{""taste"":1,""health"":-1}","{""taste"":1,""health"":0}",,,1
,2055.0,,2055.0,500.0,stim,single-stim-button,107,287527,0.0-106.0,dietary_decision,True,0,,Yes,2055.0,decision,ChipsAhoy,1.0,1.0,FamousAmos,"{""taste"":1,""health"":1}","{""taste"":1,""health"":0}",,,1
,1972.0,,1972.0,500.0,stim,single-stim-button,108,290005,0.0-107.0,dietary_decision,True,0,,Strong_Yes,1972.0,decision,Lindt,2.0,2.0,FamousAmos,"{""taste"":2,""health"":""NaN""}","{""taste"":1,""health"":0}",,,1
,1571.0,,1571.0,500.0,stim,single-stim-button,109,292088,0.0-108.0,dietary_decision,True,0,,Yes,1571.0,decision,laysclassic,1.0,3.0,FamousAmos,"{""taste"":1,""health"":-1}","{""taste"":1,""health"":0}",,,1
,1944.0,,1944.0,500.0,stim,single-stim-button,110,294544,0.0-109.0,dietary_decision,True,0,,No,1944.0,decision,frozenyogart,-1.0,4.0,FamousAmos,"{""taste"":2,""health"":1}","{""taste"":1,""health"":0}",,,1
,1464.0,,1464.0,500.0,stim,single-stim-button,111,296521,0.0-110.0,dietary_decision,True,0,,Yes,1464.0,decision,KitKat,1.0,5.0,FamousAmos,"{""taste"":2,""health"":1}","{""taste"":1,""health"":0}",,,1
,1778.0,,1778.0,500.0,stim,single-stim-button,112,298812,0.0-111.0,dietary_decision,True,0,,Strong_No,1778.0,decision,strawberries,-2.0,6.0,FamousAmos,"{""taste"":0,""health"":-1}","{""taste"":1,""health"":0}",,,1
,2177.0,,2177.0,500.0,stim,single-stim-button,113,301494,0.0-112.0,dietary_decision,True,0,,Yes,2177.0,decision,Reeses,1.0,7.0,FamousAmos,"{""taste"":2,""health"":0}","{""taste"":1,""health"":0}",,,1
,1709.0,,1709.0,500.0,stim,single-stim-button,114,303711,0.0-113.0,dietary_decision,True,0,,Neutral,1709.0,decision,butterfinger,0.0,8.0,FamousAmos,"{""taste"":2,""health"":1}","{""taste"":1,""health"":0}",,,1
,1136.0,,1136.0,500.0,stim,single-stim-button,115,305352,0.0-114.0,dietary_decision,True,0,,Yes,1136.0,decision,orange,1.0,9.0,FamousAmos,"{""taste"":2,""health"":-1}","{""taste"":1,""health"":0}",,,1
,1314.0,,1314.0,500.0,stim,single-stim-button,116,307178,0.0-115.0,dietary_decision,True,0,,Yes,1314.0,decision,RiceKrispyTreat,1.0,10.0,FamousAmos,"{""taste"":1,""health"":1}","{""taste"":1,""health"":0}",,,1
,1501.0,,1501.0,500.0,stim,single-stim-button,117,309185,0.0-116.0,dietary_decision,True,0,,Neutral,1501.0,decision,slimfastV,0.0,11.0,FamousAmos,"{""taste"":2,""health"":0}","{""taste"":1,""health"":0}",,,1
,1687.0,,1687.0,500.0,stim,single-stim-button,118,311387,0.0-117.0,dietary_decision,True,0,,No,1687.0,decision,redgrapes,-1.0,12.0,FamousAmos,"{""taste"":1,""health"":1}","{""taste"":1,""health"":0}",,,1
,1738.0,,1738.0,500.0,stim,single-stim-button,119,313628,0.0-118.0,dietary_decision,True,0,,Yes,1738.0,decision,mixedyogart,1.0,13.0,FamousAmos,"{""taste"":0,""health"":0}","{""taste"":1,""health"":0}",,,1
,870.0,,870.0,500.0,stim,single-stim-button,120,315011,0.0-119.0,dietary_decision,True,0,,Yes,870.0,decision,HoHo,1.0,14.0,FamousAmos,"{""taste"":2,""health"":0}","{""taste"":1,""health"":0}",,,1
,688.0,,688.0,500.0,stim,single-stim-button,121,316205,0.0-120.0,dietary_decision,True,0,,Yes,688.0,decision,carrots,1.0,15.0,FamousAmos,"{""taste"":1,""health"":0}","{""taste"":1,""health"":0}",,,1
,888.0,,888.0,500.0,stim,single-stim-button,122,317604,0.0-121.0,dietary_decision,True,0,,Yes,888.0,decision,uTwix,1.0,16.0,FamousAmos,"{""taste"":0,""health"":0}","{""taste"":1,""health"":0}",,,1
,688.0,,688.0,500.0,stim,single-stim-button,123,318794,0.0-122.0,dietary_decision,True,0,,Yes,688.0,decision,FlamingCheetos,1.0,17.0,FamousAmos,"{""taste"":0,""health"":-1}","{""taste"":1,""health"":0}",,,1
,1945.0,,1945.0,500.0,stim,single-stim-button,124,321252,0.0-123.0,dietary_decision,True,0,,Yes,1945.0,decision,uToberlorone,1.0,18.0,FamousAmos,"{""taste"":""NaN"",""health"":1}","{""taste"":1,""health"":0}",,,1
,1460.0,,1460.0,500.0,stim,single-stim-button,125,323228,0.0-124.0,dietary_decision,True,0,,Yes,1460.0,decision,specialKbar,1.0,19.0,FamousAmos,"{""taste"":1,""health"":1}","{""taste"":1,""health"":0}",,,1
,669.0,,669.0,500.0,stim,single-stim-button,126,324411,0.0-125.0,dietary_decision,True,0,,Yes,669.0,decision,blueberryyogart,1.0,20.0,FamousAmos,"{""taste"":1,""health"":1}","{""taste"":1,""health"":0}",,,1
,770.0,,770.0,500.0,stim,single-stim-button,127,325696,0.0-126.0,dietary_decision,True,0,,Yes,770.0,decision,brocollincauliflower,1.0,21.0,FamousAmos,"{""taste"":1,""health"":1}","{""taste"":1,""health"":0}",,,1
,660.0,,660.0,500.0,stim,single-stim-button,128,326863,0.0-127.0,dietary_decision,True,0,,Yes,660.0,decision,banana,1.0,22.0,FamousAmos,"{""taste"":2,""health"":1}","{""taste"":1,""health"":0}",,,1
,589.0,,589.0,500.0,stim,single-stim-button,129,327962,0.0-128.0,dietary_decision,True,0,,Yes,589.0,decision,keeblerrainbow,1.0,23.0,FamousAmos,"{""taste"":1,""health"":1}","{""taste"":1,""health"":0}",,,1
,602.0,,602.0,500.0,stim,single-stim-button,130,329077,0.0-129.0,dietary_decision,True,0,,Yes,602.0,decision,keeblerfudgestripes,1.0,24.0,FamousAmos,"{""taste"":1,""health"":1}","{""taste"":1,""health"":0}",,,1
,650.0,,650.0,500.0,stim,single-stim-button,131,330243,0.0-130.0,dietary_decision,True,0,,Yes,650.0,decision,icecreamsandwich,1.0,25.0,FamousAmos,"{""taste"":2,""health"":0}","{""taste"":1,""health"":0}",,,1
,834.0,,834.0,500.0,stim,single-stim-button,132,331592,0.0-131.0,dietary_decision,True,0,,Yes,834.0,decision,Oreos,1.0,26.0,FamousAmos,"{""taste"":2,""health"":1}","{""taste"":1,""health"":0}",,,1
,668.0,,668.0,500.0,stim,single-stim-button,133,332770,0.0-132.0,dietary_decision,True,0,,Yes,668.0,decision,cherryicecream,1.0,27.0,FamousAmos,"{""taste"":2,""health"":0}","{""taste"":1,""health"":0}",,,1
,530.0,,530.0,500.0,stim,single-stim-button,134,333804,0.0-133.0,dietary_decision,True,0,,Yes,530.0,decision,MrsFields,1.0,28.0,FamousAmos,"{""taste"":2,""health"":1}","{""taste"":1,""health"":0}",,,1
,1320.0,,1320.0,500.0,stim,single-stim-button,135,335638,0.0-134.0,dietary_decision,True,0,,Yes,1320.0,decision,strussel,1.0,29.0,FamousAmos,"{""taste"":0,""health"":0}","{""taste"":1,""health"":0}",,,1
,641.0,,641.0,500.0,stim,single-stim-button,136,336790,0.0-135.0,dietary_decision,True,0,,Yes,641.0,decision,100Grand,1.0,30.0,FamousAmos,"{""taste"":1,""health"":1}","{""taste"":1,""health"":0}",,,1
,559.0,,559.0,500.0,stim,single-stim-button,137,337862,0.0-136.0,dietary_decision,True,0,,Yes,559.0,decision,cookies,1.0,31.0,FamousAmos,"{""taste"":1,""health"":1}","{""taste"":1,""health"":0}",,,1
,612.0,,612.0,500.0,stim,single-stim-button,138,338985,0.0-137.0,dietary_decision,True,0,,Yes,612.0,decision,cranberries,1.0,32.0,FamousAmos,"{""taste"":2,""health"":0}","{""taste"":1,""health"":0}",,,1
,659.0,,659.0,500.0,stim,single-stim-button,139,340161,0.0-138.0,dietary_decision,True,0,,Yes,659.0,decision,whitegrapes,1.0,33.0,FamousAmos,"{""taste"":2,""health"":1}","{""taste"":1,""health"":0}",,,1
,800.0,,800.0,500.0,stim,single-stim-button,140,341469,0.0-139.0,dietary_decision,True,0,,Yes,800.0,decision,Ghiradelli,1.0,34.0,FamousAmos,"{""taste"":2,""health"":-1}","{""taste"":1,""health"":0}",,,1
,688.0,,688.0,500.0,stim,single-stim-button,141,342663,0.0-140.0,dietary_decision,True,0,,Yes,688.0,decision,ruffles,1.0,35.0,FamousAmos,"{""taste"":0,""health"":-1}","{""taste"":1,""health"":0}",,,1
,572.0,,572.0,500.0,stim,single-stim-button,142,343739,0.0-141.0,dietary_decision,True,0,,Yes,572.0,decision,cookiencream,1.0,36.0,FamousAmos,"{""taste"":1,""health"":1}","{""taste"":1,""health"":0}",,,1
,554.0,,554.0,500.0,stim,single-stim-button,143,344804,0.0-142.0,dietary_decision,True,0,,Yes,554.0,decision,wheatcrisps,1.0,37.0,FamousAmos,"{""taste"":""NaN"",""health"":0}","{""taste"":1,""health"":0}",,,1
,562.0,,562.0,500.0,stim,single-stim-button,144,345871,0.0-143.0,dietary_decision,True,0,,Yes,562.0,decision,sbdietbar,1.0,38.0,FamousAmos,"{""taste"":1,""health"":1}","{""taste"":1,""health"":0}",,,1
,642.0,,642.0,500.0,stim,single-stim-button,145,347026,0.0-144.0,dietary_decision,True,0,,Yes,642.0,decision,wwbrownie,1.0,39.0,FamousAmos,"{""taste"":1,""health"":0}","{""taste"":1,""health"":0}",,,1
,620.0,,620.0,500.0,stim,single-stim-button,146,348153,0.0-145.0,dietary_decision,True,0,,Yes,620.0,decision,orangejello,1.0,40.0,FamousAmos,"{""taste"":2,""health"":0}","{""taste"":1,""health"":0}",,,1
,636.0,,636.0,500.0,stim,single-stim-button,147,349294,0.0-146.0,dietary_decision,True,0,,Yes,636.0,decision,ffraspsorbet,1.0,41.0,FamousAmos,"{""taste"":2,""health"":-1}","{""taste"":1,""health"":0}",,,1
,1520.0,,1520.0,500.0,stim,single-stim-button,148,351328,0.0-147.0,dietary_decision,True,0,,No,1520.0,decision,sbcrackers,-1.0,42.0,FamousAmos,"{""taste"":0,""health"":0}","{""taste"":1,""health"":0}",,,1
,1047.0,,1047.0,500.0,stim,single-stim-button,149,352886,0.0-148.0,dietary_decision,True,0,,No,1047.0,decision,reddelicious,-1.0,43.0,FamousAmos,"{""taste"":2,""health"":0}","{""taste"":1,""health"":0}",,,1
,713.0,,713.0,500.0,stim,single-stim-button,150,354111,0.0-149.0,dietary_decision,True,0,,No,713.0,decision,raisins,-1.0,44.0,FamousAmos,"{""taste"":1,""health"":1}","{""taste"":1,""health"":0}",,,1
,853.0,,853.0,500.0,stim,single-stim-button,151,355470,0.0-150.0,dietary_decision,True,0,,No,853.0,decision,slimfastC,-1.0,45.0,FamousAmos,"{""taste"":1,""health"":1}","{""taste"":1,""health"":0}",,,1
,751.0,,751.0,500.0,stim,single-stim-button,152,356728,0.0-151.0,dietary_decision,True,0,,No,751.0,decision,grannysmith,-1.0,46.0,FamousAmos,"{""taste"":1,""health"":""NaN""}","{""taste"":1,""health"":0}",,,1
,701.0,,701.0,500.0,stim,single-stim-button,153,357942,0.0-152.0,dietary_decision,True,0,,No,701.0,decision,cellery,-1.0,47.0,FamousAmos,"{""taste"":1,""health"":0}","{""taste"":1,""health"":0}",,,1
,761.0,,761.0,500.0,stim,single-stim-button,154,359210,0.0-153.0,dietary_decision,True,0,,No,761.0,decision,wwmuffin,-1.0,48.0,FamousAmos,"{""taste"":2,""health"":0}","{""taste"":1,""health"":0}",,,1
,2612.0,,2612.0,500.0,stim,single-stim-button,6,36042,0.0-5.0,dietary_decision,True,0,,Neutral,2612.0,health_rating,uToberlorone,0.0,3.0,,,,,,2
,3454.0,,3454.0,500.0,stim,single-stim-button,7,40001,0.0-6.0,dietary_decision,True,0,,Neutral,3454.0,health_rating,sbcrackers,0.0,4.0,,,,,,2
,2219.0,,2219.0,500.0,stim,single-stim-button,8,42728,0.0-7.0,dietary_decision,True,0,,Very_Healthy,2219.0,health_rating,redgrapes,2.0,5.0,,,,,,2
,2475.0,,2475.0,500.0,stim,single-stim-button,9,45711,0.0-8.0,dietary_decision,True,0,,Very_Unhealthy,2475.0,health_rating,Reeses,-2.0,6.0,,,,,,2
,1960.0,,1960.0,500.0,stim,single-stim-button,10,48183,0.0-9.0,dietary_decision,True,0,,Very_Unhealthy,1960.0,health_rating,icecreamsandwich,-2.0,7.0,,,,,,2
,1404.0,,1404.0,500.0,stim,single-stim-button,11,50101,0.0-10.0,dietary_decision,True,0,,Very_Unhealthy,1404.0,health_rating,ChipsAhoy,-2.0,8.0,,,,,,2
,2104.0,,2104.0,500.0,stim,single-stim-button,12,52717,0.0-11.0,dietary_decision,True,0,,Unhealthy,2104.0,health_rating,Doritosranch,-1.0,9.0,,,,,,2
,2910.0,,2910.0,500.0,stim,single-stim-button,13,56142,0.0-12.0,dietary_decision,True,0,,Neutral,2910.0,health_rating,wheatcrisps,0.0,10.0,,,,,,2
,2736.0,,2736.0,500.0,stim,single-stim-button,14,59392,0.0-13.0,dietary_decision,True,0,,Neutral,2736.0,health_rating,wwbrownie,0.0,11.0,,,,,,2
,2164.0,,2164.0,500.0,stim,single-stim-button,15,62068,0.0-14.0,dietary_decision,True,0,,Unhealthy,2164.0,health_rating,butterfinger,-1.0,12.0,,,,,,2
,3828.0,,3828.0,500.0,stim,single-stim-button,16,66402,0.0-15.0,dietary_decision,True,0,,Unhealthy,3828.0,health_rating,cookies,-1.0,13.0,,,,,,2
,2069.0,,2069.0,500.0,stim,single-stim-button,17,68979,0.0-16.0,dietary_decision,True,0,,Unhealthy,2069.0,health_rating,orangejello,-1.0,14.0,,,,,,2
,2398.0,,2398.0,500.0,stim,single-stim-button,18,71892,0.0-17.0,dietary_decision,True,0,,Very_Healthy,2398.0,health_rating,orange,2.0,15.0,,,,,,2
,3752.0,,3752.0,500.0,stim,single-stim-button,19,76154,0.0-18.0,dietary_decision,True,0,,Neutral,3752.0,health_rating,slimfastV,0.0,16.0,,,,,,2
,1990.0,,1990.0,500.0,stim,single-stim-button,21,83166,0.0-20.0,dietary_decision,True,0,,Very_Healthy,1990.0,health_rating,banana,2.0,18.0,,,,,,2
,1865.0,,1865.0,500.0,stim,single-stim-button,22,85541,0.0-21.0,dietary_decision,True,0,,Very_Healthy,1865.0,health_rating,specialKbar,2.0,19.0,,,,,,2
,3439.0,,3439.0,500.0,stim,single-stim-button,23,89493,0.0-22.0,dietary_decision,True,0,,Unhealthy,3439.0,health_rating,keeblerfudgestripes,-1.0,20.0,,,,,,2
,1746.0,,1746.0,500.0,stim,single-stim-button,24,91749,0.0-23.0,dietary_decision,True,0,,Unhealthy,1746.0,health_rating,MrsFields,-1.0,21.0,,,,,,2
,3237.0,,3237.0,500.0,stim,single-stim-button,25,95491,0.0-24.0,dietary_decision,True,0,,Unhealthy,3237.0,health_rating,cookiencream,-1.0,22.0,,,,,,2
,1111.0,,1111.0,500.0,stim,single-stim-button,26,97115,0.0-25.0,dietary_decision,True,0,,Unhealthy,1111.0,health_rating,uTwix,-1.0,23.0,,,,,,2
,1011.0,,1011.0,500.0,stim,single-stim-button,27,98638,0.0-26.0,dietary_decision,True,0,,Unhealthy,1011.0,health_rating,FlamingCheetos,-1.0,24.0,,,,,,2
,1165.0,,1165.0,500.0,stim,single-stim-button,28,100313,0.0-27.0,dietary_decision,True,0,,Unhealthy,1165.0,health_rating,strussel,-1.0,25.0,,,,,,2
,1388.0,,1388.0,500.0,stim,single-stim-button,31,111245,0.0-30.0,dietary_decision,True,0,,Unhealthy,1388.0,health_rating,wwmuffin,-1.0,28.0,,,,,,2
,1909.0,,1909.0,500.0,stim,single-stim-button,32,113666,0.0-31.0,dietary_decision,True,0,,Very_Unhealthy,1909.0,health_rating,blueberryyogart,-2.0,29.0,,,,,,2
,1981.0,,1981.0,500.0,stim,single-stim-button,33,116161,0.0-32.0,dietary_decision,True,0,,Very_Healthy,1981.0,health_rating,frozenyogart,2.0,30.0,,,,,,2
,1151.0,,1151.0,500.0,stim,single-stim-button,34,117823,0.0-33.0,dietary_decision,True,0,,Very_Healthy,1151.0,health_rating,grannysmith,2.0,31.0,,,,,,2
,1993.0,,1993.0,500.0,stim,single-stim-button,35,120322,0.0-34.0,dietary_decision,True,0,,Unhealthy,1993.0,health_rating,slimfastC,-1.0,32.0,,,,,,2
,2183.0,,2183.0,500.0,stim,single-stim-button,36,123018,0.0-35.0,dietary_decision,True,0,,Very_Healthy,2183.0,health_rating,cranberries,2.0,33.0,,,,,,2
,2875.0,,2875.0,500.0,stim,single-stim-button,37,126402,0.0-36.0,dietary_decision,True,0,,Neutral,2875.0,health_rating,ruffles,0.0,34.0,,,,,,2
,2553.0,,2553.0,500.0,stim,single-stim-button,38,129468,0.0-37.0,dietary_decision,True,0,,Healthy,2553.0,health_rating,RiceKrispyTreat,1.0,35.0,,,,,,2
,2062.0,,2062.0,500.0,stim,single-stim-button,39,132042,0.0-38.0,dietary_decision,True,0,,Very_Healthy,2062.0,health_rating,whitegrapes,2.0,36.0,,,,,,2
,1031.0,,1031.0,500.0,stim,single-stim-button,40,133584,0.0-39.0,dietary_decision,True,0,,Very_Healthy,1031.0,health_rating,reddelicious,2.0,37.0,,,,,,2
,2849.0,,2849.0,500.0,stim,single-stim-button,41,136940,0.0-40.0,dietary_decision,True,0,,Unhealthy,2849.0,health_rating,FamousAmos,-1.0,38.0,,,,,,2
,1804.0,,1804.0,500.0,stim,single-stim-button,42,139257,0.0-41.0,dietary_decision,True,0,,Very_Unhealthy,1804.0,health_rating,Oreos,-2.0,39.0,,,,,,2
,2203.0,,2203.0,500.0,stim,single-stim-button,43,141969,0.0-42.0,dietary_decision,True,0,,Very_Healthy,2203.0,health_rating,strawberries,2.0,40.0,,,,,,2
,1978.0,,1978.0,500.0,stim,single-stim-button,44,144459,0.0-43.0,dietary_decision,True,0,,Unhealthy,1978.0,health_rating,laysclassic,-1.0,41.0,,,,,,2
,1982.0,,1982.0,500.0,stim,single-stim-button,45,146953,0.0-44.0,dietary_decision,True,0,,Unhealthy,1982.0,health_rating,ffraspsorbet,-1.0,42.0,,,,,,2
,3433.0,,3433.0,500.0,stim,single-stim-button,46,150893,0.0-45.0,dietary_decision,True,0,,Healthy,3433.0,health_rating,mixedyogart,1.0,43.0,,,,,,2
,2248.0,,2248.0,500.0,stim,single-stim-button,48,158174,0.0-47.0,dietary_decision,True,0,,Very_Healthy,2248.0,health_rating,carrots,2.0,45.0,,,,,,2
,1843.0,,1843.0,500.0,stim,single-stim-button,49,160527,0.0-48.0,dietary_decision,True,0,,Unhealthy,1843.0,health_rating,KitKat,-1.0,46.0,,,,,,2
,1374.0,,1374.0,500.0,stim,single-stim-button,50,162412,0.0-49.0,dietary_decision,True,0,,Very_Unhealthy,1374.0,health_rating,keeblerrainbow,-2.0,47.0,,,,,,2
,2911.0,,2911.0,500.0,stim,single-stim-button,51,165828,0.0-50.0,dietary_decision,True,0,,Neutral,2911.0,health_rating,Lindt,0.0,48.0,,,,,,2
,2172.0,,2172.0,500.0,stim,single-stim-button,52,168510,0.0-51.0,dietary_decision,True,0,,Very_Unhealthy,2172.0,health_rating,cherryicecream,-2.0,49.0,,,,,,2
,3931.0,,3931.0,500.0,stim,single-stim-button,54,176140,0.0-53.0,dietary_decision,True,0,,Neutral,3931.0,taste_rating,slimfastV,0.0,0.0,,,,,,2
,1035.0,,1035.0,500.0,stim,single-stim-button,55,177684,0.0-54.0,dietary_decision,True,0,,Neutral,1035.0,taste_rating,slimfastC,0.0,1.0,,,,,,2
,1227.0,,1227.0,500.0,stim,single-stim-button,56,179425,0.0-55.0,dietary_decision,True,0,,Neutral,1227.0,taste_rating,cellery,0.0,2.0,,,,,,2
,2245.0,,2245.0,500.0,stim,single-stim-button,57,182181,0.0-56.0,dietary_decision,True,0,,Good,2245.0,taste_rating,cookiencream,1.0,3.0,,,,,,2
,1141.0,,1141.0,500.0,stim,single-stim-button,58,183836,0.0-57.0,dietary_decision,True,0,,Good,1141.0,taste_rating,MrsFields,1.0,4.0,,,,,,2
,3249.0,,3249.0,500.0,stim,single-stim-button,59,187600,0.0-58.0,dietary_decision,True,0,,Neutral,3249.0,taste_rating,KitKat,0.0,5.0,,,,,,2
,2265.0,,2265.0,500.0,stim,single-stim-button,60,190372,0.0-59.0,dietary_decision,True,0,,Bad,2265.0,taste_rating,Reeses,-1.0,6.0,,,,,,2
,2033.0,,2033.0,500.0,stim,single-stim-button,61,192911,0.0-60.0,dietary_decision,True,0,,Good,2033.0,taste_rating,RiceKrispyTreat,1.0,7.0,,,,,,2
,1853.0,,1853.0,500.0,stim,single-stim-button,62,195277,0.0-61.0,dietary_decision,True,0,,Neutral,1853.0,taste_rating,ruffles,0.0,8.0,,,,,,2
,2128.0,,2128.0,500.0,stim,single-stim-button,63,197918,0.0-62.0,dietary_decision,True,0,,Very_Bad,2128.0,taste_rating,butterfinger,-2.0,9.0,,,,,,2
,1312.0,,1312.0,500.0,stim,single-stim-button,64,199742,0.0-63.0,dietary_decision,True,0,,Very_Bad,1312.0,taste_rating,Ghiradelli,-2.0,10.0,,,,,,2
,1756.0,,1756.0,500.0,stim,single-stim-button,65,202013,0.0-64.0,dietary_decision,True,0,,Good,1756.0,taste_rating,banana,1.0,11.0,,,,,,2
,997.0,,997.0,500.0,stim,single-stim-button,66,203520,0.0-65.0,dietary_decision,True,0,,Good,997.0,taste_rating,strawberries,1.0,12.0,,,,,,2
,1807.0,,1807.0,500.0,stim,single-stim-button,67,205831,0.0-66.0,dietary_decision,True,0,,Neutral,1807.0,taste_rating,redgrapes,0.0,13.0,,,,,,2
,1765.0,,1765.0,500.0,stim,single-stim-button,68,208101,0.0-67.0,dietary_decision,True,0,,Good,1765.0,taste_rating,uToberlorone,1.0,14.0,,,,,,2
,2801.0,,2801.0,500.0,stim,single-stim-button,69,211412,0.0-68.0,dietary_decision,True,0,,Neutral,2801.0,taste_rating,ffraspsorbet,0.0,15.0,,,,,,2
,1764.0,,1764.0,500.0,stim,single-stim-button,70,213685,0.0-69.0,dietary_decision,True,0,,Neutral,1764.0,taste_rating,cherryicecream,0.0,16.0,,,,,,2
,2546.0,,2546.0,500.0,stim,single-stim-button,71,216740,0.0-70.0,dietary_decision,True,0,,Good,2546.0,taste_rating,mixedyogart,1.0,17.0,,,,,,2
,1543.0,,1543.0,500.0,stim,single-stim-button,72,218797,0.0-71.0,dietary_decision,True,0,,Very_Good,1543.0,taste_rating,reddelicious,2.0,18.0,,,,,,2
,1843.0,,1843.0,500.0,stim,single-stim-button,73,221152,0.0-72.0,dietary_decision,True,0,,Good,1843.0,taste_rating,100Grand,1.0,19.0,,,,,,2
,1197.0,,1197.0,500.0,stim,single-stim-button,74,222861,0.0-73.0,dietary_decision,True,0,,Good,1197.0,taste_rating,cookies,1.0,20.0,,,,,,2
,1435.0,,1435.0,500.0,stim,single-stim-button,75,224807,0.0-74.0,dietary_decision,True,0,,Good,1435.0,taste_rating,Oreos,1.0,21.0,,,,,,2
,1929.0,,1929.0,500.0,stim,single-stim-button,76,227251,0.0-75.0,dietary_decision,True,0,,Bad,1929.0,taste_rating,cranberries,-1.0,22.0,,,,,,2
,1623.0,,1623.0,500.0,stim,single-stim-button,77,229387,0.0-76.0,dietary_decision,True,0,,Bad,1623.0,taste_rating,HoHo,-1.0,23.0,,,,,,2
,2308.0,,2308.0,500.0,stim,single-stim-button,78,232204,0.0-77.0,dietary_decision,True,0,,Good,2308.0,taste_rating,FlamingCheetos,1.0,24.0,,,,,,2
,2549.0,,2549.0,500.0,stim,single-stim-button,79,235267,0.0-78.0,dietary_decision,True,0,,Bad,2549.0,taste_rating,wwmuffin,-1.0,25.0,,,,,,2
,2337.0,,2337.0,500.0,stim,single-stim-button,80,238115,0.0-79.0,dietary_decision,True,0,,Very_Good,2337.0,taste_rating,specialKbar,2.0,26.0,,,,,,2
,1029.0,,1029.0,500.0,stim,single-stim-button,81,239656,0.0-80.0,dietary_decision,True,0,,Very_Good,1029.0,taste_rating,grannysmith,2.0,27.0,,,,,,2
,1043.0,,1043.0,500.0,stim,single-stim-button,82,241208,0.0-81.0,dietary_decision,True,0,,Very_Good,1043.0,taste_rating,icecreamsandwich,2.0,28.0,,,,,,2
,1490.0,,1490.0,500.0,stim,single-stim-button,83,243209,0.0-82.0,dietary_decision,True,0,,Very_Good,1490.0,taste_rating,carrots,2.0,29.0,,,,,,2
,1074.0,,1074.0,500.0,stim,single-stim-button,84,244794,0.0-83.0,dietary_decision,True,0,,Very_Good,1074.0,taste_rating,FamousAmos,2.0,30.0,,,,,,2
,2371.0,,2371.0,500.0,stim,single-stim-button,85,247677,0.0-84.0,dietary_decision,True,0,,Good,2371.0,taste_rating,whitegrapes,1.0,31.0,,,,,,2
,2258.0,,2258.0,500.0,stim,single-stim-button,86,250444,0.0-85.0,dietary_decision,True,0,,Good,2258.0,taste_rating,laysclassic,1.0,32.0,,,,,,2
,1141.0,,1141.0,500.0,stim,single-stim-button,87,252095,0.0-86.0,dietary_decision,True,0,,Good,1141.0,taste_rating,keeblerfudgestripes,1.0,33.0,,,,,,2
,1278.0,,1278.0,500.0,stim,single-stim-button,88,253889,0.0-87.0,dietary_decision,True,0,,Good,1278.0,taste_rating,sbcrackers,1.0,34.0,,,,,,2
,1777.0,,1777.0,500.0,stim,single-stim-button,89,256175,0.0-88.0,dietary_decision,True,0,,Good,1777.0,taste_rating,brocollincauliflower,1.0,35.0,,,,,,2
,1059.0,,1059.0,500.0,stim,single-stim-button,90,257746,0.0-89.0,dietary_decision,True,0,,Good,1059.0,taste_rating,keeblerrainbow,1.0,36.0,,,,,,2
,963.0,,963.0,500.0,stim,single-stim-button,91,259220,0.0-90.0,dietary_decision,True,0,,Good,963.0,taste_rating,Doritosranch,1.0,37.0,,,,,,2
,1275.0,,1275.0,500.0,stim,single-stim-button,92,261009,0.0-91.0,dietary_decision,True,0,,Good,1275.0,taste_rating,ChipsAhoy,1.0,38.0,,,,,,2
,1064.0,,1064.0,500.0,stim,single-stim-button,93,262585,0.0-92.0,dietary_decision,True,0,,Good,1064.0,taste_rating,sbdietbar,1.0,39.0,,,,,,2
,1792.0,,1792.0,500.0,stim,single-stim-button,94,264885,0.0-93.0,dietary_decision,True,0,,Neutral,1792.0,taste_rating,raisins,0.0,40.0,,,,,,2
,1036.0,,1036.0,500.0,stim,single-stim-button,95,266433,0.0-94.0,dietary_decision,True,0,,Neutral,1036.0,taste_rating,strussel,0.0,41.0,,,,,,2
,867.0,,867.0,500.0,stim,single-stim-button,96,267812,0.0-95.0,dietary_decision,True,0,,Neutral,867.0,taste_rating,frozenyogart,0.0,42.0,,,,,,2
,982.0,,982.0,500.0,stim,single-stim-button,97,269303,0.0-96.0,dietary_decision,True,0,,Neutral,982.0,taste_rating,wheatcrisps,0.0,43.0,,,,,,2
,976.0,,976.0,500.0,stim,single-stim-button,98,270791,0.0-97.0,dietary_decision,True,0,,Neutral,976.0,taste_rating,wwbrownie,0.0,44.0,,,,,,2
,1048.0,,1048.0,500.0,stim,single-stim-button,99,272354,0.0-98.0,dietary_decision,True,0,,Neutral,1048.0,taste_rating,uTwix,0.0,45.0,,,,,,2
,1503.0,,1503.0,500.0,stim,single-stim-button,100,274370,0.0-99.0,dietary_decision,True,0,,Bad,1503.0,taste_rating,blueberryyogart,-1.0,46.0,,,,,,2
,933.0,,933.0,500.0,stim,single-stim-button,101,275817,0.0-100.0,dietary_decision,True,0,,Bad,933.0,taste_rating,orangejello,-1.0,47.0,,,,,,2
,1979.0,,1979.0,500.0,stim,single-stim-button,102,278305,0.0-101.0,dietary_decision,True,0,,Very_Good,1979.0,taste_rating,orange,2.0,48.0,,,,,,2
,1958.0,,1958.0,500.0,stim,single-stim-button,103,280776,0.0-102.0,dietary_decision,True,0,,Neutral,1958.0,taste_rating,Lindt,0.0,49.0,,,,,,2
,-1.0,,4000.0,500.0,stim,single-stim-button,106,291930,0.0-106.0,dietary_decision,True,0,,-1,4000.0,decision,wheatcrisps,-3.0,0.0,Doritosranch,"{""health"":0,""taste"":0}","{""health"":-1,""taste"":1}",,,2
,-1.0,,4000.0,500.0,stim,single-stim-button,107,296451,0.0-107.0,dietary_decision,True,0,,-1,4000.0,decision,reddelicious,-3.0,1.0,Doritosranch,"{""health"":2,""taste"":2}","{""health"":-1,""taste"":1}",,,2
,3097.0,,3097.0,500.0,stim,single-stim-button,108,300054,0.0-108.0,dietary_decision,True,0,,Neutral,3097.0,decision,orangejello,0.0,2.0,Doritosranch,"{""health"":-1,""taste"":-1}","{""health"":-1,""taste"":1}",,,2
,997.0,,997.0,500.0,stim,single-stim-button,109,301562,0.0-109.0,dietary_decision,True,0,,Neutral,997.0,decision,FamousAmos,0.0,3.0,Doritosranch,"{""health"":-1,""taste"":2}","{""health"":-1,""taste"":1}",,,2
,580.0,,580.0,500.0,stim,single-stim-button,110,302652,0.0-110.0,dietary_decision,True,0,,Neutral,580.0,decision,butterfinger,0.0,4.0,Doritosranch,"{""health"":-1,""taste"":-2}","{""health"":-1,""taste"":1}",,,2
,498.0,,498.0,500.0,stim,single-stim-button,111,303664,0.0-111.0,dietary_decision,True,0,,Neutral,498.0,decision,keeblerrainbow,0.0,5.0,Doritosranch,"{""health"":-2,""taste"":1}","{""health"":-1,""taste"":1}",,,2
,390.0,,390.0,500.0,stim,single-stim-button,112,304566,0.0-112.0,dietary_decision,True,0,,Neutral,390.0,decision,MrsFields,0.0,6.0,Doritosranch,"{""health"":-1,""taste"":1}","{""health"":-1,""taste"":1}",,,2
,296.0,,296.0,500.0,stim,single-stim-button,113,305374,0.0-113.0,dietary_decision,True,0,,Neutral,296.0,decision,Ghiradelli,0.0,7.0,Doritosranch,"{""health"":""NaN"",""taste"":-2}","{""health"":-1,""taste"":1}",,,2
,249.0,,249.0,500.0,stim,single-stim-button,114,306136,0.0-114.0,dietary_decision,True,0,,Neutral,249.0,decision,RiceKrispyTreat,0.0,8.0,Doritosranch,"{""health"":1,""taste"":1}","{""health"":-1,""taste"":1}",,,2
,685.0,,685.0,500.0,stim,single-stim-button,115,307334,0.0-115.0,dietary_decision,True,0,,Neutral,685.0,decision,cherryicecream,0.0,9.0,Doritosranch,"{""health"":-2,""taste"":0}","{""health"":-1,""taste"":1}",,,2
,361.0,,361.0,500.0,stim,single-stim-button,116,308206,0.0-116.0,dietary_decision,True,0,,Neutral,361.0,decision,strawberries,0.0,10.0,Doritosranch,"{""health"":2,""taste"":1}","{""health"":-1,""taste"":1}",,,2
,448.0,,448.0,500.0,stim,single-stim-button,117,309166,0.0-117.0,dietary_decision,True,0,,Neutral,448.0,decision,sbdietbar,0.0,11.0,Doritosranch,"{""health"":""NaN"",""taste"":1}","{""health"":-1,""taste"":1}",,,2
,264.0,,264.0,500.0,stim,single-stim-button,118,309932,0.0-118.0,dietary_decision,True,0,,Neutral,264.0,decision,Oreos,0.0,12.0,Doritosranch,"{""health"":-2,""taste"":1}","{""health"":-1,""taste"":1}",,,2
,360.0,,360.0,500.0,stim,single-stim-button,119,310806,0.0-119.0,dietary_decision,True,0,,Neutral,360.0,decision,uTwix,0.0,13.0,Doritosranch,"{""health"":-1,""taste"":0}","{""health"":-1,""taste"":1}",,,2
,368.0,,368.0,500.0,stim,single-stim-button,120,311682,0.0-120.0,dietary_decision,True,0,,Neutral,368.0,decision,grannysmith,0.0,14.0,Doritosranch,"{""health"":2,""taste"":2}","{""health"":-1,""taste"":1}",,,2
,267.0,,267.0,500.0,stim,single-stim-button,121,312462,0.0-121.0,dietary_decision,True,0,,Neutral,267.0,decision,icecreamsandwich,0.0,15.0,Doritosranch,"{""health"":-2,""taste"":2}","{""health"":-1,""taste"":1}",,,2
,417.0,,417.0,500.0,stim,single-stim-button,122,313392,0.0-122.0,dietary_decision,True,0,,Neutral,417.0,decision,blueberryyogart,0.0,16.0,Doritosranch,"{""health"":-2,""taste"":-1}","{""health"":-1,""taste"":1}",,,2
,202.0,,202.0,500.0,stim,single-stim-button,123,314102,0.0-123.0,dietary_decision,True,0,,Neutral,202.0,decision,cookiencream,0.0,17.0,Doritosranch,"{""health"":-1,""taste"":1}","{""health"":-1,""taste"":1}",,,2
,748.0,,748.0,500.0,stim,single-stim-button,124,315353,0.0-124.0,dietary_decision,True,0,,Neutral,748.0,decision,cranberries,0.0,18.0,Doritosranch,"{""health"":2,""taste"":-1}","{""health"":-1,""taste"":1}",,,2
,1697.0,,1697.0,500.0,stim,single-stim-button,125,317559,0.0-125.0,dietary_decision,True,0,,Neutral,1697.0,decision,cookies,0.0,19.0,Doritosranch,"{""health"":-1,""taste"":1}","{""health"":-1,""taste"":1}",,,2
,1148.0,,1148.0,500.0,stim,single-stim-button,126,319208,0.0-126.0,dietary_decision,True,0,,Neutral,1148.0,decision,whitegrapes,0.0,20.0,Doritosranch,"{""health"":2,""taste"":1}","{""health"":-1,""taste"":1}",,,2
,422.0,,422.0,500.0,stim,single-stim-button,127,320137,0.0-127.0,dietary_decision,True,0,,Neutral,422.0,decision,Lindt,0.0,21.0,Doritosranch,"{""health"":0,""taste"":0}","{""health"":-1,""taste"":1}",,,2
,-1.0,,4000.0,500.0,stim,single-stim-button,128,324655,0.0-128.0,dietary_decision,True,0,,-1,4000.0,decision,slimfastC,-3.0,22.0,Doritosranch,"{""health"":-1,""taste"":0}","{""health"":-1,""taste"":1}",,,2
,610.0,,610.0,500.0,stim,single-stim-button,129,325776,0.0-129.0,dietary_decision,True,0,,Neutral,610.0,decision,sbcrackers,0.0,23.0,Doritosranch,"{""health"":0,""taste"":1}","{""health"":-1,""taste"":1}",,,2
,294.0,,294.0,500.0,stim,single-stim-button,130,326583,0.0-130.0,dietary_decision,True,0,,Neutral,294.0,decision,carrots,0.0,24.0,Doritosranch,"{""health"":2,""taste"":2}","{""health"":-1,""taste"":1}",,,2
,547.0,,547.0,500.0,stim,single-stim-button,131,327639,0.0-131.0,dietary_decision,True,0,,Neutral,547.0,decision,redgrapes,0.0,25.0,Doritosranch,"{""health"":2,""taste"":0}","{""health"":-1,""taste"":1}",,,2
,938.0,,938.0,500.0,stim,single-stim-button,132,329086,0.0-132.0,dietary_decision,True,0,,Neutral,938.0,decision,Reeses,0.0,26.0,Doritosranch,"{""health"":-2,""taste"":-1}","{""health"":-1,""taste"":1}",,,2
,579.0,,579.0,500.0,stim,single-stim-button,133,330173,0.0-133.0,dietary_decision,True,0,,Neutral,579.0,decision,HoHo,0.0,27.0,Doritosranch,"{""health"":""NaN"",""taste"":-1}","{""health"":-1,""taste"":1}",,,2
,547.0,,547.0,500.0,stim,single-stim-button,134,331225,0.0-134.0,dietary_decision,True,0,,Neutral,547.0,decision,laysclassic,0.0,28.0,Doritosranch,"{""health"":-1,""taste"":1}","{""health"":-1,""taste"":1}",,,2
,917.0,,917.0,500.0,stim,single-stim-button,135,332650,0.0-135.0,dietary_decision,True,0,,Neutral,917.0,decision,ffraspsorbet,0.0,29.0,Doritosranch,"{""health"":-1,""taste"":0}","{""health"":-1,""taste"":1}",,,2
,461.0,,461.0,500.0,stim,single-stim-button,136,333614,0.0-136.0,dietary_decision,True,0,,Neutral,461.0,decision,orange,0.0,30.0,Doritosranch,"{""health"":2,""taste"":2}","{""health"":-1,""taste"":1}",,,2
,314.0,,314.0,500.0,stim,single-stim-button,137,334442,0.0-137.0,dietary_decision,True,0,,Neutral,314.0,decision,wwbrownie,0.0,31.0,Doritosranch,"{""health"":0,""taste"":0}","{""health"":-1,""taste"":1}",,,2
,235.0,,235.0,500.0,stim,single-stim-button,138,335188,0.0-138.0,dietary_decision,True,0,,Neutral,235.0,decision,cellery,0.0,32.0,Doritosranch,"{""health"":""NaN"",""taste"":0}","{""health"":-1,""taste"":1}",,,2
,763.0,,763.0,500.0,stim,single-stim-button,139,336459,0.0-139.0,dietary_decision,True,0,,Neutral,763.0,decision,FlamingCheetos,0.0,33.0,Doritosranch,"{""health"":-1,""taste"":1}","{""health"":-1,""taste"":1}",,,2
,300.0,,300.0,500.0,stim,single-stim-button,140,337265,0.0-140.0,dietary_decision,True,0,,Neutral,300.0,decision,brocollincauliflower,0.0,34.0,Doritosranch,"{""health"":""NaN"",""taste"":1}","{""health"":-1,""taste"":1}",,,2
,718.0,,718.0,500.0,stim,single-stim-button,141,338494,0.0-141.0,dietary_decision,True,0,,Neutral,718.0,decision,mixedyogart,0.0,35.0,Doritosranch,"{""health"":1,""taste"":1}","{""health"":-1,""taste"":1}",,,2
,1857.0,,1857.0,500.0,stim,single-stim-button,142,340862,0.0-142.0,dietary_decision,True,0,,Neutral,1857.0,decision,ruffles,0.0,36.0,Doritosranch,"{""health"":0,""taste"":0}","{""health"":-1,""taste"":1}",,,2
,596.0,,596.0,500.0,stim,single-stim-button,143,341970,0.0-143.0,dietary_decision,True,0,,Neutral,596.0,decision,ChipsAhoy,0.0,37.0,Doritosranch,"{""health"":-2,""taste"":1}","{""health"":-1,""taste"":1}",,,2
,388.0,,388.0,500.0,stim,single-stim-button,144,342866,0.0-144.0,dietary_decision,True,0,,Neutral,388.0,decision,frozenyogart,0.0,38.0,Doritosranch,"{""health"":2,""taste"":0}","{""health"":-1,""taste"":1}",,,2
,455.0,,455.0,500.0,stim,single-stim-button,145,343834,0.0-145.0,dietary_decision,True,0,,Neutral,455.0,decision,raisins,0.0,39.0,Doritosranch,"{""health"":""NaN"",""taste"":0}","{""health"":-1,""taste"":1}",,,2
,748.0,,748.0,500.0,stim,single-stim-button,146,345089,0.0-146.0,dietary_decision,True,0,,Neutral,748.0,decision,wwmuffin,0.0,40.0,Doritosranch,"{""health"":-1,""taste"":-1}","{""health"":-1,""taste"":1}",,,2
,1198.0,,1198.0,500.0,stim,single-stim-button,147,346800,0.0-147.0,dietary_decision,True,0,,Neutral,1198.0,decision,uToberlorone,0.0,41.0,Doritosranch,"{""health"":0,""taste"":1}","{""health"":-1,""taste"":1}",,,2
,1432.0,,1432.0,500.0,stim,single-stim-button,148,348733,0.0-148.0,dietary_decision,True,0,,Neutral,1432.0,decision,strussel,0.0,42.0,Doritosranch,"{""health"":-1,""taste"":0}","{""health"":-1,""taste"":1}",,,2
,329.0,,329.0,500.0,stim,single-stim-button,149,349576,0.0-149.0,dietary_decision,True,0,,Neutral,329.0,decision,100Grand,0.0,43.0,Doritosranch,"{""health"":""NaN"",""taste"":1}","{""health"":-1,""taste"":1}",,,2
,266.0,,266.0,500.0,stim,single-stim-button,150,350353,0.0-150.0,dietary_decision,True,0,,Neutral,266.0,decision,KitKat,0.0,44.0,Doritosranch,"{""health"":-1,""taste"":0}","{""health"":-1,""taste"":1}",,,2
,248.0,,248.0,500.0,stim,single-stim-button,151,351114,0.0-151.0,dietary_decision,True,0,,Neutral,248.0,decision,specialKbar,0.0,45.0,Doritosranch,"{""health"":2,""taste"":2}","{""health"":-1,""taste"":1}",,,2
,717.0,,717.0,500.0,stim,single-stim-button,152,352336,0.0-152.0,dietary_decision,True,0,,Neutral,717.0,decision,keeblerfudgestripes,0.0,46.0,Doritosranch,"{""health"":-1,""taste"":1}","{""health"":-1,""taste"":1}",,,2
,779.0,,779.0,500.0,stim,single-stim-button,153,353623,0.0-153.0,dietary_decision,True,0,,Neutral,779.0,decision,slimfastV,0.0,47.0,Doritosranch,"{""health"":0,""taste"":0}","{""health"":-1,""taste"":1}",,,2
,822.0,,822.0,500.0,stim,single-stim-button,154,354955,0.0-154.0,dietary_decision,True,0,,Neutral,822.0,decision,banana,0.0,48.0,Doritosranch,"{""health"":2,""taste"":1}","{""health"":-1,""taste"":1}",,,2
,2144.0,,2144.0,500.0,stim,single-stim-button,4,26832,0.0-3.0,dietary_decision,True,0,,Neutral,2144.0,health_rating,KitKat,0.0,1.0,,,,,,3
,1988.0,,1988.0,500.0,stim,single-stim-button,5,29323,0.0-4.0,dietary_decision,True,0,,Neutral,1988.0,health_rating,slimfastC,0.0,2.0,,,,,,3
,1988.0,,1988.0,500.0,stim,single-stim-button,6,31821,0.0-5.0,dietary_decision,True,0,,Neutral,1988.0,health_rating,slimfastV,0.0,3.0,,,,,,3
,2280.0,,2280.0,500.0,stim,single-stim-button,7,34610,0.0-6.0,dietary_decision,True,0,,Healthy,2280.0,health_rating,wheatcrisps,1.0,4.0,,,,,,3
,3048.0,,3048.0,500.0,stim,single-stim-button,8,38169,0.0-7.0,dietary_decision,True,0,,Healthy,3048.0,health_rating,cellery,1.0,5.0,,,,,,3
,2484.0,,2484.0,500.0,stim,single-stim-button,10,45671,0.0-9.0,dietary_decision,True,0,,Healthy,2484.0,health_rating,FamousAmos,1.0,7.0,,,,,,3
,2251.0,,2251.0,500.0,stim,single-stim-button,11,48431,0.0-10.0,dietary_decision,True,0,,Very_Healthy,2251.0,health_rating,redgrapes,2.0,8.0,,,,,,3
,3793.0,,3793.0,500.0,stim,single-stim-button,12,52730,0.0-11.0,dietary_decision,True,0,,Healthy,3793.0,health_rating,carrots,1.0,9.0,,,,,,3
,2095.0,,2095.0,500.0,stim,single-stim-button,14,59838,0.0-13.0,dietary_decision,True,0,,Neutral,2095.0,health_rating,cookiencream,0.0,11.0,,,,,,3
,1486.0,,1486.0,500.0,stim,single-stim-button,15,61829,0.0-14.0,dietary_decision,True,0,,Neutral,1486.0,health_rating,Lindt,0.0,12.0,,,,,,3
,1426.0,,1426.0,500.0,stim,single-stim-button,16,63757,0.0-15.0,dietary_decision,True,0,,Healthy,1426.0,health_rating,strawberries,1.0,13.0,,,,,,3
,1959.0,,1959.0,500.0,stim,single-stim-button,17,66228,0.0-16.0,dietary_decision,True,0,,Neutral,1959.0,health_rating,sbcrackers,0.0,14.0,,,,,,3
,3172.0,,3172.0,500.0,stim,single-stim-button,18,69902,0.0-17.0,dietary_decision,True,0,,Very_Healthy,3172.0,health_rating,banana,2.0,15.0,,,,,,3
,2282.0,,2282.0,500.0,stim,single-stim-button,19,72696,0.0-18.0,dietary_decision,True,0,,Neutral,2282.0,health_rating,icecreamsandwich,0.0,16.0,,,,,,3
,2402.0,,2402.0,500.0,stim,single-stim-button,20,75610,0.0-19.0,dietary_decision,True,0,,Very_Healthy,2402.0,health_rating,orange,2.0,17.0,,,,,,3
,2270.0,,2270.0,500.0,stim,single-stim-button,22,82900,0.0-21.0,dietary_decision,True,0,,Unhealthy,2270.0,health_rating,Reeses,-1.0,19.0,,,,,,3
,2472.0,,2472.0,500.0,stim,single-stim-button,23,85875,0.0-22.0,dietary_decision,True,0,,Neutral,2472.0,health_rating,ffraspsorbet,0.0,20.0,,,,,,3
,1246.0,,1246.0,500.0,stim,single-stim-button,24,87622,0.0-23.0,dietary_decision,True,0,,Very_Healthy,1246.0,health_rating,reddelicious,2.0,21.0,,,,,,3
,1684.0,,1684.0,500.0,stim,single-stim-button,25,89809,0.0-24.0,dietary_decision,True,0,,Unhealthy,1684.0,health_rating,laysclassic,-1.0,22.0,,,,,,3
,2432.0,,2432.0,500.0,stim,single-stim-button,26,92744,0.0-25.0,dietary_decision,True,0,,Neutral,2432.0,health_rating,strussel,0.0,23.0,,,,,,3
,1705.0,,1705.0,500.0,stim,single-stim-button,28,99464,0.0-27.0,dietary_decision,True,0,,Unhealthy,1705.0,health_rating,Oreos,-1.0,25.0,,,,,,3
,1267.0,,1267.0,500.0,stim,single-stim-button,29,101245,0.0-28.0,dietary_decision,True,0,,Very_Healthy,1267.0,health_rating,grannysmith,2.0,26.0,,,,,,3
,2678.0,,2678.0,500.0,stim,single-stim-button,30,104426,0.0-29.0,dietary_decision,True,0,,Unhealthy,2678.0,health_rating,HoHo,-1.0,27.0,,,,,,3
,2252.0,,2252.0,500.0,stim,single-stim-button,31,107190,0.0-30.0,dietary_decision,True,0,,Healthy,2252.0,health_rating,raisins,1.0,28.0,,,,,,3
,2608.0,,2608.0,500.0,stim,single-stim-button,32,110308,0.0-31.0,dietary_decision,True,0,,Neutral,2608.0,health_rating,sbdietbar,0.0,29.0,,,,,,3
,3470.0,,3470.0,500.0,stim,single-stim-button,33,114292,0.0-32.0,dietary_decision,True,0,,Unhealthy,3470.0,health_rating,frozenyogart,-1.0,30.0,,,,,,3
,2989.0,,2989.0,500.0,stim,single-stim-button,34,117782,0.0-33.0,dietary_decision,True,0,,Unhealthy,2989.0,health_rating,ChipsAhoy,-1.0,31.0,,,,,,3
,3863.0,,3863.0,500.0,stim,single-stim-button,35,122145,0.0-34.0,dietary_decision,True,0,,Unhealthy,3863.0,health_rating,keeblerfudgestripes,-1.0,32.0,,,,,,3
,1284.0,,1284.0,500.0,stim,single-stim-button,37,128471,0.0-36.0,dietary_decision,True,0,,Healthy,1284.0,health_rating,whitegrapes,1.0,34.0,,,,,,3
,3403.0,,3403.0,500.0,stim,single-stim-button,38,132383,0.0-37.0,dietary_decision,True,0,,Neutral,3403.0,health_rating,keeblerrainbow,0.0,35.0,,,,,,3
,3427.0,,3427.0,500.0,stim,single-stim-button,39,136326,0.0-38.0,dietary_decision,True,0,,Unhealthy,3427.0,health_rating,Doritosranch,-1.0,36.0,,,,,,3
,3790.0,,3790.0,500.0,stim,single-stim-button,40,140618,0.0-39.0,dietary_decision,True,0,,Unhealthy,3790.0,health_rating,MrsFields,-1.0,37.0,,,,,,3
,2807.0,,2807.0,500.0,stim,single-stim-button,41,143940,0.0-40.0,dietary_decision,True,0,,Neutral,2807.0,health_rating,wwmuffin,0.0,38.0,,,,,,3
,2378.0,,2378.0,500.0,stim,single-stim-button,42,146826,0.0-41.0,dietary_decision,True,0,,Neutral,2378.0,health_rating,ruffles,0.0,39.0,,,,,,3
,2463.0,,2463.0,500.0,stim,single-stim-button,43,149794,0.0-42.0,dietary_decision,True,0,,Unhealthy,2463.0,health_rating,uTwix,-1.0,40.0,,,,,,3
,3244.0,,3244.0,500.0,stim,single-stim-button,45,158049,0.0-44.0,dietary_decision,True,0,,Unhealthy,3244.0,health_rating,uToberlorone,-1.0,42.0,,,,,,3
,2305.0,,2305.0,500.0,stim,single-stim-button,46,160870,0.0-45.0,dietary_decision,True,0,,Neutral,2305.0,health_rating,wwbrownie,0.0,43.0,,,,,,3
,3224.0,,3224.0,500.0,stim,single-stim-button,48,169103,0.0-47.0,dietary_decision,True,0,,Very_Unhealthy,3224.0,health_rating,FlamingCheetos,-2.0,45.0,,,,,,3
,3755.0,,3755.0,500.0,stim,single-stim-button,49,173361,0.0-48.0,dietary_decision,True,0,,Neutral,3755.0,health_rating,specialKbar,0.0,46.0,,,,,,3
,3344.0,,3344.0,500.0,stim,single-stim-button,51,181721,0.0-50.0,dietary_decision,True,0,,Unhealthy,3344.0,health_rating,100Grand,-1.0,48.0,,,,,,3
,3250.0,,3250.0,500.0,stim,single-stim-button,52,185481,0.0-51.0,dietary_decision,True,0,,Very_Unhealthy,3250.0,health_rating,orangejello,-2.0,49.0,,,,,,3
,1679.0,,1679.0,500.0,stim,single-stim-button,54,191878,0.0-53.0,dietary_decision,True,0,,Good,1679.0,taste_rating,blueberryyogart,1.0,0.0,,,,,,3
,1975.0,,1975.0,500.0,stim,single-stim-button,55,194370,0.0-54.0,dietary_decision,True,0,,Bad,1975.0,taste_rating,sbdietbar,-1.0,1.0,,,,,,3
,1378.0,,1378.0,500.0,stim,single-stim-button,56,196256,0.0-55.0,dietary_decision,True,0,,Neutral,1378.0,taste_rating,cranberries,0.0,2.0,,,,,,3
,2294.0,,2294.0,500.0,stim,single-stim-button,57,199057,0.0-56.0,dietary_decision,True,0,,Neutral,2294.0,taste_rating,orange,0.0,3.0,,,,,,3
,1039.0,,1039.0,500.0,stim,single-stim-button,58,200606,0.0-57.0,dietary_decision,True,0,,Good,1039.0,taste_rating,grannysmith,1.0,4.0,,,,,,3
,2278.0,,2278.0,500.0,stim,single-stim-button,59,203399,0.0-58.0,dietary_decision,True,0,,Good,2278.0,taste_rating,keeblerfudgestripes,1.0,5.0,,,,,,3
,1751.0,,1751.0,500.0,stim,single-stim-button,60,205659,0.0-59.0,dietary_decision,True,0,,Neutral,1751.0,taste_rating,Lindt,0.0,6.0,,,,,,3
,2306.0,,2306.0,500.0,stim,single-stim-button,61,208473,0.0-60.0,dietary_decision,True,0,,Neutral,2306.0,taste_rating,wheatcrisps,0.0,7.0,,,,,,3
,1872.0,,1872.0,500.0,stim,single-stim-button,62,210860,0.0-61.0,dietary_decision,True,0,,Neutral,1872.0,taste_rating,specialKbar,0.0,8.0,,,,,,3
,2498.0,,2498.0,500.0,stim,single-stim-button,63,213864,0.0-62.0,dietary_decision,True,0,,Neutral,2498.0,taste_rating,cellery,0.0,9.0,,,,,,3
,1786.0,,1786.0,500.0,stim,single-stim-button,64,216158,0.0-63.0,dietary_decision,True,0,,Very_Bad,1786.0,taste_rating,brocollincauliflower,-2.0,10.0,,,,,,3
,1229.0,,1229.0,500.0,stim,single-stim-button,65,217890,0.0-64.0,dietary_decision,True,0,,Good,1229.0,taste_rating,whitegrapes,1.0,11.0,,,,,,3
,1757.0,,1757.0,500.0,stim,single-stim-button,66,220148,0.0-65.0,dietary_decision,True,0,,Neutral,1757.0,taste_rating,cherryicecream,0.0,12.0,,,,,,3
,1573.0,,1573.0,500.0,stim,single-stim-button,67,222224,0.0-66.0,dietary_decision,True,0,,Neutral,1573.0,taste_rating,HoHo,0.0,13.0,,,,,,3
,1541.0,,1541.0,500.0,stim,single-stim-button,68,224272,0.0-67.0,dietary_decision,True,0,,Good,1541.0,taste_rating,uTwix,1.0,14.0,,,,,,3
,2198.0,,2198.0,500.0,stim,single-stim-button,69,226982,0.0-68.0,dietary_decision,True,0,,Neutral,2198.0,taste_rating,ruffles,0.0,15.0,,,,,,3
,1499.0,,1499.0,500.0,stim,single-stim-button,70,228988,0.0-69.0,dietary_decision,True,0,,Neutral,1499.0,taste_rating,Reeses,0.0,16.0,,,,,,3
,1853.0,,1853.0,500.0,stim,single-stim-button,71,231352,0.0-70.0,dietary_decision,True,0,,Neutral,1853.0,taste_rating,Ghiradelli,0.0,17.0,,,,,,3
,2582.0,,2582.0,500.0,stim,single-stim-button,72,234435,0.0-71.0,dietary_decision,True,0,,Bad,2582.0,taste_rating,butterfinger,-1.0,18.0,,,,,,3
,1514.0,,1514.0,500.0,stim,single-stim-button,73,236455,0.0-72.0,dietary_decision,True,0,,Neutral,1514.0,taste_rating,wwmuffin,0.0,19.0,,,,,,3
,1873.0,,1873.0,500.0,stim,single-stim-button,74,238828,0.0-73.0,dietary_decision,True,0,,Bad,1873.0,taste_rating,MrsFields,-1.0,20.0,,,,,,3
,1757.0,,1757.0,500.0,stim,single-stim-button,75,241086,0.0-74.0,dietary_decision,True,0,,Bad,1757.0,taste_rating,strawberries,-1.0,21.0,,,,,,3
,1856.0,,1856.0,500.0,stim,single-stim-button,76,243442,0.0-75.0,dietary_decision,True,0,,Neutral,1856.0,taste_rating,icecreamsandwich,0.0,22.0,,,,,,3
,1454.0,,1454.0,500.0,stim,single-stim-button,77,245408,0.0-76.0,dietary_decision,True,0,,Neutral,1454.0,taste_rating,redgrapes,0.0,23.0,,,,,,3
,3260.0,,3260.0,500.0,stim,single-stim-button,78,249177,0.0-77.0,dietary_decision,True,0,,Neutral,3260.0,taste_rating,slimfastV,0.0,24.0,,,,,,3
,1916.0,,1916.0,500.0,stim,single-stim-button,79,251605,0.0-78.0,dietary_decision,True,0,,Bad,1916.0,taste_rating,strussel,-1.0,25.0,,,,,,3
,1843.0,,1843.0,500.0,stim,single-stim-button,80,253950,0.0-79.0,dietary_decision,True,0,,Bad,1843.0,taste_rating,FamousAmos,-1.0,26.0,,,,,,3
,1397.0,,1397.0,500.0,stim,single-stim-button,81,255863,0.0-80.0,dietary_decision,True,0,,Very_Good,1397.0,taste_rating,banana,2.0,27.0,,,,,,3
,1955.0,,1955.0,500.0,stim,single-stim-button,82,258319,0.0-81.0,dietary_decision,True,0,,Very_Good,1955.0,taste_rating,cookiencream,2.0,28.0,,,,,,3
,1713.0,,1713.0,500.0,stim,single-stim-button,83,260543,0.0-82.0,dietary_decision,True,0,,Neutral,1713.0,taste_rating,ffraspsorbet,0.0,29.0,,,,,,3
,1334.0,,1334.0,500.0,stim,single-stim-button,84,262392,0.0-83.0,dietary_decision,True,0,,Good,1334.0,taste_rating,reddelicious,1.0,30.0,,,,,,3
,2270.0,,2270.0,500.0,stim,single-stim-button,85,265166,0.0-84.0,dietary_decision,True,0,,Neutral,2270.0,taste_rating,mixedyogart,0.0,31.0,,,,,,3
,2014.0,,2014.0,500.0,stim,single-stim-button,86,267686,0.0-85.0,dietary_decision,True,0,,Neutral,2014.0,taste_rating,slimfastC,0.0,32.0,,,,,,3
,1190.0,,1190.0,500.0,stim,single-stim-button,87,269388,0.0-86.0,dietary_decision,True,0,,Neutral,1190.0,taste_rating,100Grand,0.0,33.0,,,,,,3
,1988.0,,1988.0,500.0,stim,single-stim-button,88,271880,0.0-87.0,dietary_decision,True,0,,Neutral,1988.0,taste_rating,frozenyogart,0.0,34.0,,,,,,3
,1927.0,,1927.0,500.0,stim,single-stim-button,89,274321,0.0-88.0,dietary_decision,True,0,,Bad,1927.0,taste_rating,sbcrackers,-1.0,35.0,,,,,,3
,1982.0,,1982.0,500.0,stim,single-stim-button,90,276806,0.0-89.0,dietary_decision,True,0,,Neutral,1982.0,taste_rating,raisins,0.0,36.0,,,,,,3
,1768.0,,1768.0,500.0,stim,single-stim-button,91,279080,0.0-90.0,dietary_decision,True,0,,Bad,1768.0,taste_rating,FlamingCheetos,-1.0,37.0,,,,,,3
,2362.0,,2362.0,500.0,stim,single-stim-button,92,281958,0.0-91.0,dietary_decision,True,0,,Neutral,2362.0,taste_rating,cookies,0.0,38.0,,,,,,3
,1249.0,,1249.0,500.0,stim,single-stim-button,93,283717,0.0-92.0,dietary_decision,True,0,,Neutral,1249.0,taste_rating,ChipsAhoy,0.0,39.0,,,,,,3
,2486.0,,2486.0,500.0,stim,single-stim-button,94,286708,0.0-93.0,dietary_decision,True,0,,Very_Good,2486.0,taste_rating,Oreos,2.0,40.0,,,,,,3
,2382.0,,2382.0,500.0,stim,single-stim-button,95,289592,0.0-94.0,dietary_decision,True,0,,Neutral,2382.0,taste_rating,orangejello,0.0,41.0,,,,,,3
,1911.0,,1911.0,500.0,stim,single-stim-button,96,292005,0.0-95.0,dietary_decision,True,0,,Very_Good,1911.0,taste_rating,KitKat,2.0,42.0,,,,,,3
,1279.0,,1279.0,500.0,stim,single-stim-button,97,293786,0.0-96.0,dietary_decision,True,0,,Good,1279.0,taste_rating,uToberlorone,1.0,43.0,,,,,,3
,2256.0,,2256.0,500.0,stim,single-stim-button,98,296545,0.0-97.0,dietary_decision,True,0,,Good,2256.0,taste_rating,Doritosranch,1.0,44.0,,,,,,3
,3036.0,,3036.0,500.0,stim,single-stim-button,99,300083,0.0-98.0,dietary_decision,True,0,,Neutral,3036.0,taste_rating,carrots,0.0,45.0,,,,,,3
,995.0,,995.0,500.0,stim,single-stim-button,100,301591,0.0-99.0,dietary_decision,True,0,,Neutral,995.0,taste_rating,keeblerrainbow,0.0,46.0,,,,,,3
,1552.0,,1552.0,500.0,stim,single-stim-button,101,303645,0.0-100.0,dietary_decision,True,0,,Bad,1552.0,taste_rating,RiceKrispyTreat,-1.0,47.0,,,,,,3
,2075.0,,2075.0,500.0,stim,single-stim-button,102,306221,0.0-101.0,dietary_decision,True,0,,Good,2075.0,taste_rating,laysclassic,1.0,48.0,,,,,,3
,1403.0,,1403.0,500.0,stim,single-stim-button,103,308128,0.0-102.0,dietary_decision,True,0,,Good,1403.0,taste_rating,wwbrownie,1.0,49.0,,,,,,3
,3431.0,,3431.0,500.0,stim,single-stim-button,106,366825,0.0-106.0,dietary_decision,True,0,,Strong_Yes,3431.0,decision,KitKat,2.0,0.0,Lindt,"{""health"":0,""taste"":2}","{""health"":0,""taste"":0}",,,3
,3193.0,,3193.0,500.0,stim,single-stim-button,107,370532,0.0-107.0,dietary_decision,True,0,,Neutral,3193.0,decision,cranberries,0.0,1.0,Lindt,"{""health"":""NaN"",""taste"":0}","{""health"":0,""taste"":0}",,,3
,-1.0,,4000.0,500.0,stim,single-stim-button,108,375039,0.0-108.0,dietary_decision,True,0,,-1,4000.0,decision,strawberries,-3.0,2.0,Lindt,"{""health"":1,""taste"":-1}","{""health"":0,""taste"":0}",,,3
,2002.0,,2002.0,500.0,stim,single-stim-button,109,377554,0.0-109.0,dietary_decision,True,0,,Neutral,2002.0,decision,cherryicecream,0.0,3.0,Lindt,"{""health"":""NaN"",""taste"":0}","{""health"":0,""taste"":0}",,,3
,3001.0,,3001.0,500.0,stim,single-stim-button,110,381067,0.0-110.0,dietary_decision,True,0,,Neutral,3001.0,decision,uTwix,0.0,4.0,Lindt,"{""health"":-1,""taste"":1}","{""health"":0,""taste"":0}",,,3
,1365.0,,1365.0,500.0,stim,single-stim-button,111,382945,0.0-111.0,dietary_decision,True,0,,Neutral,1365.0,decision,Ghiradelli,0.0,5.0,Lindt,"{""health"":""NaN"",""taste"":0}","{""health"":0,""taste"":0}",,,3
,1706.0,,1706.0,500.0,stim,single-stim-button,112,385162,0.0-112.0,dietary_decision,True,0,,Yes,1706.0,decision,reddelicious,1.0,6.0,Lindt,"{""health"":2,""taste"":1}","{""health"":0,""taste"":0}",,,3
,2020.0,,2020.0,500.0,stim,single-stim-button,113,387694,0.0-113.0,dietary_decision,True,0,,No,2020.0,decision,keeblerfudgestripes,-1.0,7.0,Lindt,"{""health"":-1,""taste"":1}","{""health"":0,""taste"":0}",,,3
,1583.0,,1583.0,500.0,stim,single-stim-button,114,389778,0.0-114.0,dietary_decision,True,0,,No,1583.0,decision,ChipsAhoy,-1.0,8.0,Lindt,"{""health"":-1,""taste"":0}","{""health"":0,""taste"":0}",,,3
,1721.0,,1721.0,500.0,stim,single-stim-button,115,392011,0.0-115.0,dietary_decision,True,0,,Neutral,1721.0,decision,blueberryyogart,0.0,9.0,Lindt,"{""health"":""NaN"",""taste"":1}","{""health"":0,""taste"":0}",,,3
,1753.0,,1753.0,500.0,stim,single-stim-button,116,394273,0.0-116.0,dietary_decision,True,0,,No,1753.0,decision,HoHo,-1.0,10.0,Lindt,"{""health"":-1,""taste"":0}","{""health"":0,""taste"":0}",,,3
,3475.0,,3475.0,500.0,stim,single-stim-button,117,398261,0.0-117.0,dietary_decision,True,0,,No,3475.0,decision,raisins,-1.0,11.0,Lindt,"{""health"":1,""taste"":0}","{""health"":0,""taste"":0}",,,3
,1282.0,,1282.0,500.0,stim,single-stim-button,118,400045,0.0-118.0,dietary_decision,True,0,,Yes,1282.0,decision,laysclassic,1.0,12.0,Lindt,"{""health"":-1,""taste"":1}","{""health"":0,""taste"":0}",,,3
,1364.0,,1364.0,500.0,stim,single-stim-button,119,401917,0.0-119.0,dietary_decision,True,0,,No,1364.0,decision,MrsFields,-1.0,13.0,Lindt,"{""health"":-1,""taste"":-1}","{""health"":0,""taste"":0}",,,3
,1443.0,,1443.0,500.0,stim,single-stim-button,120,403866,0.0-120.0,dietary_decision,True,0,,Neutral,1443.0,decision,cellery,0.0,14.0,Lindt,"{""health"":1,""taste"":0}","{""health"":0,""taste"":0}",,,3
,1946.0,,1946.0,500.0,stim,single-stim-button,121,406323,0.0-121.0,dietary_decision,True,0,,Neutral,1946.0,decision,wwmuffin,0.0,15.0,Lindt,"{""health"":0,""taste"":0}","{""health"":0,""taste"":0}",,,3
,2185.0,,2185.0,500.0,stim,single-stim-button,122,409019,0.0-122.0,dietary_decision,True,0,,Yes,2185.0,decision,Doritosranch,1.0,16.0,Lindt,"{""health"":-1,""taste"":1}","{""health"":0,""taste"":0}",,,3
,2029.0,,2029.0,500.0,stim,single-stim-button,123,411552,0.0-123.0,dietary_decision,True,0,,Neutral,2029.0,decision,butterfinger,0.0,17.0,Lindt,"{""health"":""NaN"",""taste"":-1}","{""health"":0,""taste"":0}",,,3
,1252.0,,1252.0,500.0,stim,single-stim-button,124,413312,0.0-124.0,dietary_decision,True,0,,No,1252.0,decision,RiceKrispyTreat,-1.0,18.0,Lindt,"{""health"":""NaN"",""taste"":-1}","{""health"":0,""taste"":0}",,,3
,1446.0,,1446.0,500.0,stim,single-stim-button,125,415266,0.0-125.0,dietary_decision,True,0,,Strong_No,1446.0,decision,brocollincauliflower,-2.0,19.0,Lindt,"{""health"":""NaN"",""taste"":-2}","{""health"":0,""taste"":0}",,,3
,1390.0,,1390.0,500.0,stim,single-stim-button,126,417159,0.0-126.0,dietary_decision,True,0,,No,1390.0,decision,cookies,-1.0,20.0,Lindt,"{""health"":""NaN"",""taste"":0}","{""health"":0,""taste"":0}",,,3
,1107.0,,1107.0,500.0,stim,single-stim-button,127,418778,0.0-127.0,dietary_decision,True,0,,No,1107.0,decision,FamousAmos,-1.0,21.0,Lindt,"{""health"":1,""taste"":-1}","{""health"":0,""taste"":0}",,,3
,849.0,,849.0,500.0,stim,single-stim-button,128,420129,0.0-128.0,dietary_decision,True,0,,No,849.0,decision,slimfastC,-1.0,22.0,Lindt,"{""health"":0,""taste"":0}","{""health"":0,""taste"":0}",,,3
,1296.0,,1296.0,500.0,stim,single-stim-button,129,421937,0.0-129.0,dietary_decision,True,0,,Neutral,1296.0,decision,icecreamsandwich,0.0,23.0,Lindt,"{""health"":0,""taste"":0}","{""health"":0,""taste"":0}",,,3
,1424.0,,1424.0,500.0,stim,single-stim-button,130,423872,0.0-130.0,dietary_decision,True,0,,Neutral,1424.0,decision,mixedyogart,0.0,24.0,Lindt,"{""health"":""NaN"",""taste"":0}","{""health"":0,""taste"":0}",,,3
,1137.0,,1137.0,500.0,stim,single-stim-button,131,425520,0.0-131.0,dietary_decision,True,0,,Neutral,1137.0,decision,redgrapes,0.0,25.0,Lindt,"{""health"":2,""taste"":0}","{""health"":0,""taste"":0}",,,3
,1286.0,,1286.0,500.0,stim,single-stim-button,132,427320,0.0-132.0,dietary_decision,True,0,,Neutral,1286.0,decision,Reeses,0.0,26.0,Lindt,"{""health"":-1,""taste"":0}","{""health"":0,""taste"":0}",,,3
,1732.0,,1732.0,500.0,stim,single-stim-button,133,429559,0.0-133.0,dietary_decision,True,0,,No,1732.0,decision,ffraspsorbet,-1.0,27.0,Lindt,"{""health"":0,""taste"":0}","{""health"":0,""taste"":0}",,,3
,1779.0,,1779.0,500.0,stim,single-stim-button,134,431839,0.0-134.0,dietary_decision,True,0,,Strong_Yes,1779.0,decision,banana,2.0,28.0,Lindt,"{""health"":2,""taste"":2}","{""health"":0,""taste"":0}",,,3
,3021.0,,3021.0,500.0,stim,single-stim-button,135,435364,0.0-135.0,dietary_decision,True,0,,No,3021.0,decision,wheatcrisps,-1.0,29.0,Lindt,"{""health"":1,""taste"":0}","{""health"":0,""taste"":0}",,,3
,1462.0,,1462.0,500.0,stim,single-stim-button,136,437340,0.0-136.0,dietary_decision,True,0,,Neutral,1462.0,decision,orangejello,0.0,30.0,Lindt,"{""health"":-2,""taste"":0}","{""health"":0,""taste"":0}",,,3
,1436.0,,1436.0,500.0,stim,single-stim-button,137,439283,0.0-137.0,dietary_decision,True,0,,Yes,1436.0,decision,whitegrapes,1.0,31.0,Lindt,"{""health"":1,""taste"":1}","{""health"":0,""taste"":0}",,,3
,936.0,,936.0,500.0,stim,single-stim-button,138,440732,0.0-138.0,dietary_decision,True,0,,Yes,936.0,decision,grannysmith,1.0,32.0,Lindt,"{""health"":2,""taste"":1}","{""health"":0,""taste"":0}",,,3
,1673.0,,1673.0,500.0,stim,single-stim-button,139,442914,0.0-139.0,dietary_decision,True,0,,No,1673.0,decision,100Grand,-1.0,33.0,Lindt,"{""health"":-1,""taste"":0}","{""health"":0,""taste"":0}",,,3
,723.0,,723.0,500.0,stim,single-stim-button,140,444146,0.0-140.0,dietary_decision,True,0,,No,723.0,decision,sbdietbar,-1.0,34.0,Lindt,"{""health"":0,""taste"":-1}","{""health"":0,""taste"":0}",,,3
,2088.0,,2088.0,500.0,stim,single-stim-button,141,446749,0.0-141.0,dietary_decision,True,0,,Neutral,2088.0,decision,wwbrownie,0.0,35.0,Lindt,"{""health"":0,""taste"":1}","{""health"":0,""taste"":0}",,,3
,1149.0,,1149.0,500.0,stim,single-stim-button,142,448410,0.0-142.0,dietary_decision,True,0,,No,1149.0,decision,sbcrackers,-1.0,36.0,Lindt,"{""health"":0,""taste"":-1}","{""health"":0,""taste"":0}",,,3
,1971.0,,1971.0,500.0,stim,single-stim-button,143,450888,0.0-143.0,dietary_decision,True,0,,No,1971.0,decision,carrots,-1.0,37.0,Lindt,"{""health"":1,""taste"":0}","{""health"":0,""taste"":0}",,,3
,1798.0,,1798.0,500.0,stim,single-stim-button,144,453196,0.0-144.0,dietary_decision,True,0,,Yes,1798.0,decision,Oreos,1.0,38.0,Lindt,"{""health"":-1,""taste"":2}","{""health"":0,""taste"":0}",,,3
,1194.0,,1194.0,500.0,stim,single-stim-button,145,454898,0.0-145.0,dietary_decision,True,0,,No,1194.0,decision,keeblerrainbow,-1.0,39.0,Lindt,"{""health"":0,""taste"":0}","{""health"":0,""taste"":0}",,,3
,1947.0,,1947.0,500.0,stim,single-stim-button,146,457353,0.0-146.0,dietary_decision,True,0,,Strong_No,1947.0,decision,specialKbar,-2.0,40.0,Lindt,"{""health"":0,""taste"":0}","{""health"":0,""taste"":0}",,,3
,1357.0,,1357.0,500.0,stim,single-stim-button,147,459217,0.0-147.0,dietary_decision,True,0,,Strong_No,1357.0,decision,slimfastV,-2.0,41.0,Lindt,"{""health"":0,""taste"":0}","{""health"":0,""taste"":0}",,,3
,1534.0,,1534.0,500.0,stim,single-stim-button,148,461258,0.0-148.0,dietary_decision,True,0,,Strong_Yes,1534.0,decision,cookiencream,2.0,42.0,Lindt,"{""health"":0,""taste"":2}","{""health"":0,""taste"":0}",,,3
,1305.0,,1305.0,500.0,stim,single-stim-button,149,463066,0.0-149.0,dietary_decision,True,0,,No,1305.0,decision,frozenyogart,-1.0,43.0,Lindt,"{""health"":-1,""taste"":0}","{""health"":0,""taste"":0}",,,3
,2942.0,,2942.0,500.0,stim,single-stim-button,150,466514,0.0-150.0,dietary_decision,True,0,,No,2942.0,decision,ruffles,-1.0,44.0,Lindt,"{""health"":0,""taste"":0}","{""health"":0,""taste"":0}",,,3
,1227.0,,1227.0,500.0,stim,single-stim-button,151,468252,0.0-151.0,dietary_decision,True,0,,Strong_No,1227.0,decision,FlamingCheetos,-2.0,45.0,Lindt,"{""health"":-2,""taste"":-1}","{""health"":0,""taste"":0}",,,3
,1993.0,,1993.0,500.0,stim,single-stim-button,152,470757,0.0-152.0,dietary_decision,True,0,,No,1993.0,decision,orange,-1.0,46.0,Lindt,"{""health"":2,""taste"":0}","{""health"":0,""taste"":0}",,,3
,860.0,,860.0,500.0,stim,single-stim-button,153,472122,0.0-153.0,dietary_decision,True,0,,No,860.0,decision,strussel,-1.0,47.0,Lindt,"{""health"":0,""taste"":-1}","{""health"":0,""taste"":0}",,,3
,1207.0,,1207.0,500.0,stim,single-stim-button,154,473831,0.0-154.0,dietary_decision,True,0,,Yes,1207.0,decision,uToberlorone,1.0,48.0,Lindt,"{""health"":-1,""taste"":1}","{""health"":0,""taste"":0}",,,3
,2005.0,,2005.0,500.0,stim,single-stim-button,4,93781,0.0-3.0,dietary_decision,True,0,,Neutral,2005.0,health_rating,icecreamsandwich,0.0,1.0,,,,,,4
,985.0,,985.0,500.0,stim,single-stim-button,5,95281,0.0-4.0,dietary_decision,True,0,,Healthy,985.0,health_rating,whitegrapes,1.0,2.0,,,,,,4
,1870.0,,1870.0,500.0,stim,single-stim-button,6,97660,0.0-5.0,dietary_decision,True,0,,Unhealthy,1870.0,health_rating,ChipsAhoy,-1.0,3.0,,,,,,4
,2450.0,,2450.0,500.0,stim,single-stim-button,7,100619,0.0-6.0,dietary_decision,True,0,,Healthy,2450.0,health_rating,reddelicious,1.0,4.0,,,,,,4
,2043.0,,2043.0,500.0,stim,single-stim-button,8,103173,0.0-7.0,dietary_decision,True,0,,Unhealthy,2043.0,health_rating,Doritosranch,-1.0,5.0,,,,,,4
,1392.0,,1392.0,500.0,stim,single-stim-button,9,105080,0.0-8.0,dietary_decision,True,0,,Neutral,1392.0,health_rating,raisins,0.0,6.0,,,,,,4
,1329.0,,1329.0,500.0,stim,single-stim-button,10,106910,0.0-9.0,dietary_decision,True,0,,Unhealthy,1329.0,health_rating,Oreos,-1.0,7.0,,,,,,4
,989.0,,989.0,500.0,stim,single-stim-button,11,108401,0.0-10.0,dietary_decision,True,0,,Unhealthy,989.0,health_rating,cookiencream,-1.0,8.0,,,,,,4
,969.0,,969.0,500.0,stim,single-stim-button,12,109883,0.0-11.0,dietary_decision,True,0,,Unhealthy,969.0,health_rating,wwbrownie,-1.0,9.0,,,,,,4
,1813.0,,1813.0,500.0,stim,single-stim-button,13,112209,0.0-12.0,dietary_decision,True,0,,Healthy,1813.0,health_rating,strawberries,1.0,10.0,,,,,,4
,1047.0,,1047.0,500.0,stim,single-stim-button,14,113768,0.0-13.0,dietary_decision,True,0,,Unhealthy,1047.0,health_rating,strussel,-1.0,11.0,,,,,,4
,1470.0,,1470.0,500.0,stim,single-stim-button,15,115753,0.0-14.0,dietary_decision,True,0,,Neutral,1470.0,health_rating,MrsFields,0.0,12.0,,,,,,4
,1064.0,,1064.0,500.0,stim,single-stim-button,16,117328,0.0-15.0,dietary_decision,True,0,,Unhealthy,1064.0,health_rating,laysclassic,-1.0,13.0,,,,,,4
,1161.0,,1161.0,500.0,stim,single-stim-button,17,118998,0.0-16.0,dietary_decision,True,0,,Unhealthy,1161.0,health_rating,redgrapes,-1.0,14.0,,,,,,4
,2094.0,,2094.0,500.0,stim,single-stim-button,18,121606,0.0-17.0,dietary_decision,True,0,,Unhealthy,2094.0,health_rating,HoHo,-1.0,15.0,,,,,,4
,1170.0,,1170.0,500.0,stim,single-stim-button,19,123283,0.0-18.0,dietary_decision,True,0,,Unhealthy,1170.0,health_rating,frozenyogart,-1.0,16.0,,,,,,4
,1622.0,,1622.0,500.0,stim,single-stim-button,20,125421,0.0-19.0,dietary_decision,True,0,,Unhealthy,1622.0,health_rating,orangejello,-1.0,17.0,,,,,,4
,2296.0,,2296.0,500.0,stim,single-stim-button,21,128231,0.0-20.0,dietary_decision,True,0,,Unhealthy,2296.0,health_rating,KitKat,-1.0,18.0,,,,,,4
,847.0,,847.0,500.0,stim,single-stim-button,22,129583,0.0-21.0,dietary_decision,True,0,,Unhealthy,847.0,health_rating,sbcrackers,-1.0,19.0,,,,,,4
,1261.0,,1261.0,500.0,stim,single-stim-button,23,131358,0.0-22.0,dietary_decision,True,0,,Neutral,1261.0,health_rating,Lindt,0.0,20.0,,,,,,4
,593.0,,593.0,500.0,stim,single-stim-button,24,132457,0.0-23.0,dietary_decision,True,0,,Neutral,593.0,health_rating,butterfinger,0.0,21.0,,,,,,4
,565.0,,565.0,500.0,stim,single-stim-button,25,133535,0.0-24.0,dietary_decision,True,0,,Neutral,565.0,health_rating,blueberryyogart,0.0,22.0,,,,,,4
,583.0,,583.0,500.0,stim,single-stim-button,26,134631,0.0-25.0,dietary_decision,True,0,,Neutral,583.0,health_rating,carrots,0.0,23.0,,,,,,4
,586.0,,586.0,500.0,stim,single-stim-button,27,135720,0.0-26.0,dietary_decision,True,0,,Neutral,586.0,health_rating,orange,0.0,24.0,,,,,,4
,486.0,,486.0,500.0,stim,single-stim-button,28,136718,0.0-27.0,dietary_decision,True,0,,Neutral,486.0,health_rating,cherryicecream,0.0,25.0,,,,,,4
,314.0,,314.0,500.0,stim,single-stim-button,29,137544,0.0-28.0,dietary_decision,True,0,,Neutral,314.0,health_rating,keeblerrainbow,0.0,26.0,,,,,,4
,551.0,,551.0,500.0,stim,single-stim-button,30,138597,0.0-29.0,dietary_decision,True,0,,Neutral,551.0,health_rating,cookies,0.0,27.0,,,,,,4
,390.0,,390.0,500.0,stim,single-stim-button,31,139489,0.0-30.0,dietary_decision,True,0,,Neutral,390.0,health_rating,cranberries,0.0,28.0,,,,,,4
,335.0,,335.0,500.0,stim,single-stim-button,32,140325,0.0-31.0,dietary_decision,True,0,,Neutral,335.0,health_rating,ruffles,0.0,29.0,,,,,,4
,440.0,,440.0,500.0,stim,single-stim-button,33,141275,0.0-32.0,dietary_decision,True,0,,Neutral,440.0,health_rating,banana,0.0,30.0,,,,,,4
