text,rt,key_press,block_duration,timing_post_trial,trial_id,trial_type,trial_index,time_elapsed,internal_node_id,exp_id,full_screen,focus_shifts,view_history,mouse_click,stim_duration,exp_stage,stim,coded_response,trial_num,reference,stim_rating,reference_rating,responses,credit_var,subject
,1115.0,,1115.0,500.0,stim,single-stim-button,4,18006,0.0-3.0,dietary_decision,True,0,,Good,1115.0,taste_rating,Doritosranch,1.0,1.0,,,,,,0
,2167.0,,2167.0,500.0,stim,single-stim-button,5,20679,0.0-4.0,dietary_decision,True,0,,Good,2167.0,taste_rating,cherryicecream,1.0,2.0,,,,,,0
,1793.0,,1793.0,500.0,stim,single-stim-button,6,22987,0.0-5.0,dietary_decision,True,0,,Good,1793.0,taste_rating,whitegrapes,1.0,3.0,,,,,,0
,2983.0,,2983.0,500.0,stim,single-stim-button,7,26478,0.0-6.0,dietary_decision,True,0,,Good,2983.0,taste_rating,frozenyogart,1.0,4.0,,,,,,0
,1394.0,,1394.0,500.0,stim,single-stim-button,8,28387,0.0-7.0,dietary_decision,True,0,,Good,1394.0,taste_rating,redgrapes,1.0,5.0,,,,,,0
,1141.0,,1141.0,500.0,stim,single-stim-button,9,30041,0.0-8.0,dietary_decision,True,0,,Good,1141.0,taste_rating,orange,1.0,6.0,,,,,,0
,2159.0,,2159.0,500.0,stim,single-stim-button,10,32713,0.0-9.0,dietary_decision,True,0,,Good,2159.0,taste_rating,cranberries,1.0,7.0,,,,,,0
,2274.0,,2274.0,500.0,stim,single-stim-button,11,35489,0.0-10.0,dietary_decision,True,0,,Bad,2274.0,taste_rating,slimfastC,-1.0,8.0,,,,,,0
,1586.0,,1586.0,500.0,stim,single-stim-button,12,37579,0.0-11.0,dietary_decision,True,0,,Very_Good,1586.0,taste_rating,KitKat,2.0,9.0,,,,,,0
,1723.0,,1723.0,500.0,stim,single-stim-button,13,39809,0.0-12.0,dietary_decision,True,0,,Neutral,1723.0,taste_rating,cellery,0.0,10.0,,,,,,0
,1948.0,,1948.0,500.0,stim,single-stim-button,14,42269,0.0-13.0,dietary_decision,True,0,,Good,1948.0,taste_rating,icecreamsandwich,1.0,11.0,,,,,,0
,1414.0,,1414.0,500.0,stim,single-stim-button,15,44198,0.0-14.0,dietary_decision,True,0,,Good,1414.0,taste_rating,reddelicious,1.0,12.0,,,,,,0
,2329.0,,2329.0,500.0,stim,single-stim-button,16,47033,0.0-15.0,dietary_decision,True,0,,Neutral,2329.0,taste_rating,wwmuffin,0.0,13.0,,,,,,0
,1976.0,,1976.0,500.0,stim,single-stim-button,17,49510,0.0-16.0,dietary_decision,True,0,,Very_Bad,1976.0,taste_rating,brocollincauliflower,-2.0,14.0,,,,,,0
,2580.0,,2580.0,500.0,stim,single-stim-button,18,52601,0.0-17.0,dietary_decision,True,0,,Neutral,2580.0,taste_rating,specialKbar,0.0,15.0,,,,,,0
,2246.0,,2246.0,500.0,stim,single-stim-button,19,55351,0.0-18.0,dietary_decision,True,0,,Good,2246.0,taste_rating,raisins,1.0,16.0,,,,,,0
,1884.0,,1884.0,500.0,stim,single-stim-button,20,57740,0.0-19.0,dietary_decision,True,0,,Good,1884.0,taste_rating,banana,1.0,17.0,,,,,,0
,3513.0,,3513.0,500.0,stim,single-stim-button,21,61755,0.0-20.0,dietary_decision,True,0,,Good,3513.0,taste_rating,wwbrownie,1.0,18.0,,,,,,0
,1986.0,,1986.0,500.0,stim,single-stim-button,22,64254,0.0-21.0,dietary_decision,True,0,,Very_Good,1986.0,taste_rating,cookiencream,2.0,19.0,,,,,,0
,2622.0,,2622.0,500.0,stim,single-stim-button,23,67386,0.0-22.0,dietary_decision,True,0,,Neutral,2622.0,taste_rating,Reeses,0.0,20.0,,,,,,0
,1343.0,,1343.0,500.0,stim,single-stim-button,24,69239,0.0-23.0,dietary_decision,True,0,,Good,1343.0,taste_rating,FlamingCheetos,1.0,21.0,,,,,,0
,1629.0,,1629.0,500.0,stim,single-stim-button,25,71382,0.0-24.0,dietary_decision,True,0,,Bad,1629.0,taste_rating,mixedyogart,-1.0,22.0,,,,,,0
,1379.0,,1379.0,500.0,stim,single-stim-button,26,73263,0.0-25.0,dietary_decision,True,0,,Bad,1379.0,taste_rating,sbcrackers,-1.0,23.0,,,,,,0
,2217.0,,2217.0,500.0,stim,single-stim-button,27,75985,0.0-26.0,dietary_decision,True,0,,Neutral,2217.0,taste_rating,ffraspsorbet,0.0,24.0,,,,,,0
,1543.0,,1543.0,500.0,stim,single-stim-button,28,78044,0.0-27.0,dietary_decision,True,0,,Good,1543.0,taste_rating,FamousAmos,1.0,25.0,,,,,,0
,1656.0,,1656.0,500.0,stim,single-stim-button,29,80204,0.0-28.0,dietary_decision,True,0,,Good,1656.0,taste_rating,butterfinger,1.0,26.0,,,,,,0
,1562.0,,1562.0,500.0,stim,single-stim-button,30,82274,0.0-29.0,dietary_decision,True,0,,Good,1562.0,taste_rating,sbdietbar,1.0,27.0,,,,,,0
,2958.0,,2958.0,500.0,stim,single-stim-button,31,85746,0.0-30.0,dietary_decision,True,0,,Good,2958.0,taste_rating,cookies,1.0,28.0,,,,,,0
,1377.0,,1377.0,500.0,stim,single-stim-button,32,87634,0.0-31.0,dietary_decision,True,0,,Good,1377.0,taste_rating,grannysmith,1.0,29.0,,,,,,0
,2737.0,,2737.0,500.0,stim,single-stim-button,33,90887,0.0-32.0,dietary_decision,True,0,,Good,2737.0,taste_rating,strussel,1.0,30.0,,,,,,0
,1714.0,,1714.0,500.0,stim,single-stim-button,34,93116,0.0-33.0,dietary_decision,True,0,,Neutral,1714.0,taste_rating,ruffles,0.0,31.0,,,,,,0
,1531.0,,1531.0,500.0,stim,single-stim-button,35,95161,0.0-34.0,dietary_decision,True,0,,Very_Good,1531.0,taste_rating,uTwix,2.0,32.0,,,,,,0
,1636.0,,1636.0,500.0,stim,single-stim-button,36,97300,0.0-35.0,dietary_decision,True,0,,Good,1636.0,taste_rating,ChipsAhoy,1.0,33.0,,,,,,0
,3455.0,,3455.0,500.0,stim,single-stim-button,37,101271,0.0-36.0,dietary_decision,True,0,,Very_Bad,3455.0,taste_rating,carrots,-2.0,34.0,,,,,,0
,2078.0,,2078.0,500.0,stim,single-stim-button,38,103852,0.0-37.0,dietary_decision,True,0,,Good,2078.0,taste_rating,laysclassic,1.0,35.0,,,,,,0
,1951.0,,1951.0,500.0,stim,single-stim-button,39,106307,0.0-38.0,dietary_decision,True,0,,Good,1951.0,taste_rating,uToberlorone,1.0,36.0,,,,,,0
,1592.0,,1592.0,500.0,stim,single-stim-button,40,108412,0.0-39.0,dietary_decision,True,0,,Good,1592.0,taste_rating,keeblerfudgestripes,1.0,37.0,,,,,,0
,1986.0,,1986.0,500.0,stim,single-stim-button,41,110904,0.0-40.0,dietary_decision,True,0,,Neutral,1986.0,taste_rating,blueberryyogart,0.0,38.0,,,,,,0
,1303.0,,1303.0,500.0,stim,single-stim-button,42,112710,0.0-41.0,dietary_decision,True,0,,Good,1303.0,taste_rating,Ghiradelli,1.0,39.0,,,,,,0
,1178.0,,1178.0,500.0,stim,single-stim-button,43,114390,0.0-42.0,dietary_decision,True,0,,Good,1178.0,taste_rating,100Grand,1.0,40.0,,,,,,0
,1097.0,,1097.0,500.0,stim,single-stim-button,44,115998,0.0-43.0,dietary_decision,True,0,,Good,1097.0,taste_rating,keeblerrainbow,1.0,41.0,,,,,,0
,1608.0,,1608.0,500.0,stim,single-stim-button,45,118106,0.0-44.0,dietary_decision,True,0,,Bad,1608.0,taste_rating,RiceKrispyTreat,-1.0,42.0,,,,,,0
,3033.0,,3033.0,500.0,stim,single-stim-button,46,121654,0.0-45.0,dietary_decision,True,0,,Bad,3033.0,taste_rating,wheatcrisps,-1.0,43.0,,,,,,0
,2463.0,,2463.0,500.0,stim,single-stim-button,47,124619,0.0-46.0,dietary_decision,True,0,,Very_Good,2463.0,taste_rating,Lindt,2.0,44.0,,,,,,0
,1591.0,,1591.0,500.0,stim,single-stim-button,48,126717,0.0-47.0,dietary_decision,True,0,,Good,1591.0,taste_rating,orangejello,1.0,45.0,,,,,,0
,1319.0,,1319.0,500.0,stim,single-stim-button,49,128550,0.0-48.0,dietary_decision,True,0,,Good,1319.0,taste_rating,strawberries,1.0,46.0,,,,,,0
,1527.0,,1527.0,500.0,stim,single-stim-button,50,130577,0.0-49.0,dietary_decision,True,0,,Neutral,1527.0,taste_rating,slimfastV,0.0,47.0,,,,,,0
,2305.0,,2305.0,500.0,stim,single-stim-button,51,133394,0.0-50.0,dietary_decision,True,0,,Good,2305.0,taste_rating,MrsFields,1.0,48.0,,,,,,0
,1701.0,,1701.0,500.0,stim,single-stim-button,52,135599,0.0-51.0,dietary_decision,True,0,,Good,1701.0,taste_rating,HoHo,1.0,49.0,,,,,,0
,2064.0,,2064.0,500.0,stim,single-stim-button,5,37163,0.0-4.0,dietary_decision,True,0,,Very_Good,2064.0,taste_rating,banana,2.0,2.0,,,,,,1
,3240.0,,3240.0,500.0,stim,single-stim-button,6,40914,0.0-5.0,dietary_decision,True,0,,Good,3240.0,taste_rating,cellery,1.0,3.0,,,,,,1
,2829.0,,2829.0,500.0,stim,single-stim-button,7,44245,0.0-6.0,dietary_decision,True,0,,Very_Good,2829.0,taste_rating,ffraspsorbet,2.0,4.0,,,,,,1
,1427.0,,1427.0,500.0,stim,single-stim-button,8,46187,0.0-7.0,dietary_decision,True,0,,Very_Good,1427.0,taste_rating,cherryicecream,2.0,5.0,,,,,,1
,2959.0,,2959.0,500.0,stim,single-stim-button,9,49651,0.0-8.0,dietary_decision,True,0,,Neutral,2959.0,taste_rating,sbcrackers,0.0,6.0,,,,,,1
,2213.0,,2213.0,500.0,stim,single-stim-button,10,52366,0.0-9.0,dietary_decision,True,0,,Very_Good,2213.0,taste_rating,cranberries,2.0,7.0,,,,,,1
,1410.0,,1410.0,500.0,stim,single-stim-button,11,54287,0.0-10.0,dietary_decision,True,0,,Very_Good,1410.0,taste_rating,HoHo,2.0,8.0,,,,,,1
,2126.0,,2126.0,500.0,stim,single-stim-button,12,56918,0.0-11.0,dietary_decision,True,0,,Good,2126.0,taste_rating,redgrapes,1.0,9.0,,,,,,1
,2325.0,,2325.0,500.0,stim,single-stim-button,13,59745,0.0-12.0,dietary_decision,True,0,,Good,2325.0,taste_rating,RiceKrispyTreat,1.0,10.0,,,,,,1
,1955.0,,1955.0,500.0,stim,single-stim-button,14,62210,0.0-13.0,dietary_decision,True,0,,Neutral,1955.0,taste_rating,strawberries,0.0,11.0,,,,,,1
,2758.0,,2758.0,500.0,stim,single-stim-button,15,65479,0.0-14.0,dietary_decision,True,0,,Good,2758.0,taste_rating,wwbrownie,1.0,12.0,,,,,,1
,3717.0,,3717.0,500.0,stim,single-stim-button,16,69703,0.0-15.0,dietary_decision,True,0,,Neutral,3717.0,taste_rating,FlamingCheetos,0.0,13.0,,,,,,1
,1864.0,,1864.0,500.0,stim,single-stim-button,17,72071,0.0-16.0,dietary_decision,True,0,,Very_Good,1864.0,taste_rating,frozenyogart,2.0,14.0,,,,,,1
,3841.0,,3841.0,500.0,stim,single-stim-button,18,76425,0.0-17.0,dietary_decision,True,0,,Very_Good,3841.0,taste_rating,reddelicious,2.0,15.0,,,,,,1
,1731.0,,1731.0,500.0,stim,single-stim-button,19,78669,0.0-18.0,dietary_decision,True,0,,Very_Good,1731.0,taste_rating,whitegrapes,2.0,16.0,,,,,,1
,3191.0,,3191.0,500.0,stim,single-stim-button,20,82364,0.0-19.0,dietary_decision,True,0,,Good,3191.0,taste_rating,raisins,1.0,17.0,,,,,,1
,1991.0,,1991.0,500.0,stim,single-stim-button,21,84861,0.0-20.0,dietary_decision,True,0,,Neutral,1991.0,taste_rating,strussel,0.0,18.0,,,,,,1
,3245.0,,3245.0,500.0,stim,single-stim-button,22,88612,0.0-21.0,dietary_decision,True,0,,Good,3245.0,taste_rating,keeblerrainbow,1.0,19.0,,,,,,1
,1968.0,,1968.0,500.0,stim,single-stim-button,23,91094,0.0-22.0,dietary_decision,True,0,,Neutral,1968.0,taste_rating,mixedyogart,0.0,20.0,,,,,,1
,1412.0,,1412.0,500.0,stim,single-stim-button,24,93013,0.0-23.0,dietary_decision,True,0,,Very_Good,1412.0,taste_rating,Ghiradelli,2.0,21.0,,,,,,1
,1613.0,,1613.0,500.0,stim,single-stim-button,25,95129,0.0-24.0,dietary_decision,True,0,,Good,1613.0,taste_rating,brocollincauliflower,1.0,22.0,,,,,,1
,1006.0,,1006.0,500.0,stim,single-stim-button,26,96647,0.0-25.0,dietary_decision,True,0,,Good,1006.0,taste_rating,FamousAmos,1.0,23.0,,,,,,1
,1410.0,,1410.0,500.0,stim,single-stim-button,27,98561,0.0-26.0,dietary_decision,True,0,,Good,1410.0,taste_rating,grannysmith,1.0,24.0,,,,,,1
,987.0,,987.0,500.0,stim,single-stim-button,28,100054,0.0-27.0,dietary_decision,True,0,,Good,987.0,taste_rating,specialKbar,1.0,25.0,,,,,,1
,1146.0,,1146.0,500.0,stim,single-stim-button,29,101712,0.0-28.0,dietary_decision,True,0,,Good,1146.0,taste_rating,cookiencream,1.0,26.0,,,,,,1
,2112.0,,2112.0,500.0,stim,single-stim-button,30,104337,0.0-29.0,dietary_decision,True,0,,Good,2112.0,taste_rating,blueberryyogart,1.0,27.0,,,,,,1
,788.0,,788.0,500.0,stim,single-stim-button,31,105629,0.0-30.0,dietary_decision,True,0,,Good,788.0,taste_rating,ChipsAhoy,1.0,28.0,,,,,,1
,1677.0,,1677.0,500.0,stim,single-stim-button,32,107811,0.0-31.0,dietary_decision,True,0,,Good,1677.0,taste_rating,keeblerfudgestripes,1.0,29.0,,,,,,1
,1813.0,,1813.0,500.0,stim,single-stim-button,33,110137,0.0-32.0,dietary_decision,True,0,,Neutral,1813.0,taste_rating,ruffles,0.0,30.0,,,,,,1
,1495.0,,1495.0,500.0,stim,single-stim-button,34,112135,0.0-33.0,dietary_decision,True,0,,Very_Good,1495.0,taste_rating,Oreos,2.0,31.0,,,,,,1
,1211.0,,1211.0,500.0,stim,single-stim-button,35,113859,0.0-34.0,dietary_decision,True,0,,Very_Good,1211.0,taste_rating,icecreamsandwich,2.0,32.0,,,,,,1
,1667.0,,1667.0,500.0,stim,single-stim-button,36,116029,0.0-35.0,dietary_decision,True,0,,Neutral,1667.0,taste_rating,uTwix,0.0,33.0,,,,,,1
,2662.0,,2662.0,500.0,stim,single-stim-button,37,119196,0.0-36.0,dietary_decision,True,0,,Very_Good,2662.0,taste_rating,orange,2.0,34.0,,,,,,1
,1560.0,,1560.0,500.0,stim,single-stim-button,38,121261,0.0-37.0,dietary_decision,True,0,,Very_Good,1560.0,taste_rating,Reeses,2.0,35.0,,,,,,1
,911.0,,911.0,500.0,stim,single-stim-button,39,122679,0.0-38.0,dietary_decision,True,0,,Very_Good,911.0,taste_rating,slimfastV,2.0,36.0,,,,,,1
,1012.0,,1012.0,500.0,stim,single-stim-button,40,124204,0.0-39.0,dietary_decision,True,0,,Very_Good,1012.0,taste_rating,Lindt,2.0,37.0,,,,,,1
,922.0,,922.0,500.0,stim,single-stim-button,41,125637,0.0-40.0,dietary_decision,True,0,,Very_Good,922.0,taste_rating,KitKat,2.0,38.0,,,,,,1
,1329.0,,1329.0,500.0,stim,single-stim-button,42,127469,0.0-41.0,dietary_decision,True,0,,Very_Good,1329.0,taste_rating,orangejello,2.0,39.0,,,,,,1
,1203.0,,1203.0,500.0,stim,single-stim-button,43,129177,0.0-42.0,dietary_decision,True,0,,Very_Good,1203.0,taste_rating,MrsFields,2.0,40.0,,,,,,1
,644.0,,644.0,500.0,stim,single-stim-button,44,130329,0.0-43.0,dietary_decision,True,0,,Very_Good,644.0,taste_rating,butterfinger,2.0,41.0,,,,,,1
,855.0,,855.0,500.0,stim,single-stim-button,45,131694,0.0-44.0,dietary_decision,True,0,,Good,855.0,taste_rating,Doritosranch,1.0,42.0,,,,,,1
,1115.0,,1115.0,500.0,stim,single-stim-button,46,133315,0.0-45.0,dietary_decision,True,0,,Very_Good,1115.0,taste_rating,wwmuffin,2.0,43.0,,,,,,1
,902.0,,902.0,500.0,stim,single-stim-button,47,134721,0.0-46.0,dietary_decision,True,0,,Good,902.0,taste_rating,slimfastC,1.0,44.0,,,,,,1
,1856.0,,1856.0,500.0,stim,single-stim-button,48,137079,0.0-47.0,dietary_decision,True,0,,Good,1856.0,taste_rating,carrots,1.0,45.0,,,,,,1
,1094.0,,1094.0,500.0,stim,single-stim-button,49,138687,0.0-48.0,dietary_decision,True,0,,Good,1094.0,taste_rating,cookies,1.0,46.0,,,,,,1
,762.0,,762.0,500.0,stim,single-stim-button,50,139953,0.0-49.0,dietary_decision,True,0,,Good,762.0,taste_rating,100Grand,1.0,47.0,,,,,,1
,728.0,,728.0,500.0,stim,single-stim-button,51,141184,0.0-50.0,dietary_decision,True,0,,Good,728.0,taste_rating,laysclassic,1.0,48.0,,,,,,1
,833.0,,833.0,500.0,stim,single-stim-button,52,142529,0.0-51.0,dietary_decision,True,0,,Good,833.0,taste_rating,sbdietbar,1.0,49.0,,,,,,1
,3931.0,,3931.0,500.0,stim,single-stim-button,54,176140,0.0-53.0,dietary_decision,True,0,,Neutral,3931.0,taste_rating,slimfastV,0.0,0.0,,,,,,2
,1035.0,,1035.0,500.0,stim,single-stim-button,55,177684,0.0-54.0,dietary_decision,True,0,,Neutral,1035.0,taste_rating,slimfastC,0.0,1.0,,,,,,2
,1227.0,,1227.0,500.0,stim,single-stim-button,56,179425,0.0-55.0,dietary_decision,True,0,,Neutral,1227.0,taste_rating,cellery,0.0,2.0,,,,,,2
,2245.0,,2245.0,500.0,stim,single-stim-button,57,182181,0.0-56.0,dietary_decision,True,0,,Good,2245.0,taste_rating,cookiencream,1.0,3.0,,,,,,2
,1141.0,,1141.0,500.0,stim,single-stim-button,58,183836,0.0-57.0,dietary_decision,True,0,,Good,1141.0,taste_rating,MrsFields,1.0,4.0,,,,,,2
,3249.0,,3249.0,500.0,stim,single-stim-button,59,187600,0.0-58.0,dietary_decision,True,0,,Neutral,3249.0,taste_rating,KitKat,0.0,5.0,,,,,,2
,2265.0,,2265.0,500.0,stim,single-stim-button,60,190372,0.0-59.0,dietary_decision,True,0,,Bad,2265.0,taste_rating,Reeses,-1.0,6.0,,,,,,2
,2033.0,,2033.0,500.0,stim,single-stim-button,61,192911,0.0-60.0,dietary_decision,True,0,,Good,2033.0,taste_rating,RiceKrispyTreat,1.0,7.0,,,,,,2
,1853.0,,1853.0,500.0,stim,single-stim-button,62,195277,0.0-61.0,dietary_decision,True,0,,Neutral,1853.0,taste_rating,ruffles,0.0,8.0,,,,,,2
,2128.0,,2128.0,500.0,stim,single-stim-button,63,197918,0.0-62.0,dietary_decision,True,0,,Very_Bad,2128.0,taste_rating,butterfinger,-2.0,9.0,,,,,,2
,1312.0,,1312.0,500.0,stim,single-stim-button,64,199742,0.0-63.0,dietary_decision,True,0,,Very_Bad,1312.0,taste_rating,Ghiradelli,-2.0,10.0,,,,,,2
,1756.0,,1756.0,500.0,stim,single-stim-button,65,202013,0.0-64.0,dietary_decision,True,0,,Good,1756.0,taste_rating,banana,1.0,11.0,,,,,,2
,997.0,,997.0,500.0,stim,single-stim-button,66,203520,0.0-65.0,dietary_decision,True,0,,Good,997.0,taste_rating,strawberries,1.0,12.0,,,,,,2
,1807.0,,1807.0,500.0,stim,single-stim-button,67,205831,0.0-66.0,dietary_decision,True,0,,Neutral,1807.0,taste_rating,redgrapes,0.0,13.0,,,,,,2
,1765.0,,1765.0,500.0,stim,single-stim-button,68,208101,0.0-67.0,dietary_decision,True,0,,Good,1765.0,taste_rating,uToberlorone,1.0,14.0,,,,,,2
,2801.0,,2801.0,500.0,stim,single-stim-button,69,211412,0.0-68.0,dietary_decision,True,0,,Neutral,2801.0,taste_rating,ffraspsorbet,0.0,15.0,,,,,,2
,1764.0,,1764.0,500.0,stim,single-stim-button,70,213685,0.0-69.0,dietary_decision,True,0,,Neutral,1764.0,taste_rating,cherryicecream,0.0,16.0,,,,,,2
,2546.0,,2546.0,500.0,stim,single-stim-button,71,216740,0.0-70.0,dietary_decision,True,0,,Good,2546.0,taste_rating,mixedyogart,1.0,17.0,,,,,,2
,1543.0,,1543.0,500.0,stim,single-stim-button,72,218797,0.0-71.0,dietary_decision,True,0,,Very_Good,1543.0,taste_rating,reddelicious,2.0,18.0,,,,,,2
,1843.0,,1843.0,500.0,stim,single-stim-button,73,221152,0.0-72.0,dietary_decision,True,0,,Good,1843.0,taste_rating,100Grand,1.0,19.0,,,,,,2
,1197.0,,1197.0,500.0,stim,single-stim-button,74,222861,0.0-73.0,dietary_decision,True,0,,Good,1197.0,taste_rating,cookies,1.0,20.0,,,,,,2
,1435.0,,1435.0,500.0,stim,single-stim-button,75,224807,0.0-74.0,dietary_decision,True,0,,Good,1435.0,taste_rating,Oreos,1.0,21.0,,,,,,2
,1929.0,,1929.0,500.0,stim,single-stim-button,76,227251,0.0-75.0,dietary_decision,True,0,,Bad,1929.0,taste_rating,cranberries,-1.0,22.0,,,,,,2
,1623.0,,1623.0,500.0,stim,single-stim-button,77,229387,0.0-76.0,dietary_decision,True,0,,Bad,1623.0,taste_rating,HoHo,-1.0,23.0,,,,,,2
,2308.0,,2308.0,500.0,stim,single-stim-button,78,232204,0.0-77.0,dietary_decision,True,0,,Good,2308.0,taste_rating,FlamingCheetos,1.0,24.0,,,,,,2
,2549.0,,2549.0,500.0,stim,single-stim-button,79,235267,0.0-78.0,dietary_decision,True,0,,Bad,2549.0,taste_rating,wwmuffin,-1.0,25.0,,,,,,2
,2337.0,,2337.0,500.0,stim,single-stim-button,80,238115,0.0-79.0,dietary_decision,True,0,,Very_Good,2337.0,taste_rating,specialKbar,2.0,26.0,,,,,,2
,1029.0,,1029.0,500.0,stim,single-stim-button,81,239656,0.0-80.0,dietary_decision,True,0,,Very_Good,1029.0,taste_rating,grannysmith,2.0,27.0,,,,,,2
,1043.0,,1043.0,500.0,stim,single-stim-button,82,241208,0.0-81.0,dietary_decision,True,0,,Very_Good,1043.0,taste_rating,icecreamsandwich,2.0,28.0,,,,,,2
,1490.0,,1490.0,500.0,stim,single-stim-button,83,243209,0.0-82.0,dietary_decision,True,0,,Very_Good,1490.0,taste_rating,carrots,2.0,29.0,,,,,,2
,1074.0,,1074.0,500.0,stim,single-stim-button,84,244794,0.0-83.0,dietary_decision,True,0,,Very_Good,1074.0,taste_rating,FamousAmos,2.0,30.0,,,,,,2
,2371.0,,2371.0,500.0,stim,single-stim-button,85,247677,0.0-84.0,dietary_decision,True,0,,Good,2371.0,taste_rating,whitegrapes,1.0,31.0,,,,,,2
,2258.0,,2258.0,500.0,stim,single-stim-button,86,250444,0.0-85.0,dietary_decision,True,0,,Good,2258.0,taste_rating,laysclassic,1.0,32.0,,,,,,2
,1141.0,,1141.0,500.0,stim,single-stim-button,87,252095,0.0-86.0,dietary_decision,True,0,,Good,1141.0,taste_rating,keeblerfudgestripes,1.0,33.0,,,,,,2
,1278.0,,1278.0,500.0,stim,single-stim-button,88,253889,0.0-87.0,dietary_decision,True,0,,Good,1278.0,taste_rating,sbcrackers,1.0,34.0,,,,,,2
,1777.0,,1777.0,500.0,stim,single-stim-button,89,256175,0.0-88.0,dietary_decision,True,0,,Good,1777.0,taste_rating,brocollincauliflower,1.0,35.0,,,,,,2
,1059.0,,1059.0,500.0,stim,single-stim-button,90,257746,0.0-89.0,dietary_decision,True,0,,Good,1059.0,taste_rating,keeblerrainbow,1.0,36.0,,,,,,2
,963.0,,963.0,500.0,stim,single-stim-button,91,259220,0.0-90.0,dietary_decision,True,0,,Good,963.0,taste_rating,Doritosranch,1.0,37.0,,,,,,2
,1275.0,,1275.0,500.0,stim,single-stim-button,92,261009,0.0-91.0,dietary_decision,True,0,,Good,1275.0,taste_rating,ChipsAhoy,1.0,38.0,,,,,,2
,1064.0,,1064.0,500.0,stim,single-stim-button,93,262585,0.0-92.0,dietary_decision,True,0,,Good,1064.0,taste_rating,sbdietbar,1.0,39.0,,,,,,2
,1792.0,,1792.0,500.0,stim,single-stim-button,94,264885,0.0-93.0,dietary_decision,True,0,,Neutral,1792.0,taste_rating,raisins,0.0,40.0,,,,,,2
,1036.0,,1036.0,500.0,stim,single-stim-button,95,266433,0.0-94.0,dietary_decision,True,0,,Neutral,1036.0,taste_rating,strussel,0.0,41.0,,,,,,2
,867.0,,867.0,500.0,stim,single-stim-button,96,267812,0.0-95.0,dietary_decision,True,0,,Neutral,867.0,taste_rating,frozenyogart,0.0,42.0,,,,,,2
,982.0,,982.0,500.0,stim,single-stim-button,97,269303,0.0-96.0,dietary_decision,True,0,,Neutral,982.0,taste_rating,wheatcrisps,0.0,43.0,,,,,,2
,976.0,,976.0,500.0,stim,single-stim-button,98,270791,0.0-97.0,dietary_decision,True,0,,Neutral,976.0,taste_rating,wwbrownie,0.0,44.0,,,,,,2
,1048.0,,1048.0,500.0,stim,single-stim-button,99,272354,0.0-98.0,dietary_decision,True,0,,Neutral,1048.0,taste_rating,uTwix,0.0,45.0,,,,,,2
,1503.0,,1503.0,500.0,stim,single-stim-button,100,274370,0.0-99.0,dietary_decision,True,0,,Bad,1503.0,taste_rating,blueberryyogart,-1.0,46.0,,,,,,2
,933.0,,933.0,500.0,stim,single-stim-button,101,275817,0.0-100.0,dietary_decision,True,0,,Bad,933.0,taste_rating,orangejello,-1.0,47.0,,,,,,2
,1979.0,,1979.0,500.0,stim,single-stim-button,102,278305,0.0-101.0,dietary_decision,True,0,,Very_Good,1979.0,taste_rating,orange,2.0,48.0,,,,,,2
,1958.0,,1958.0,500.0,stim,single-stim-button,103,280776,0.0-102.0,dietary_decision,True,0,,Neutral,1958.0,taste_rating,Lindt,0.0,49.0,,,,,,2
,1679.0,,1679.0,500.0,stim,single-stim-button,54,191878,0.0-53.0,dietary_decision,True,0,,Good,1679.0,taste_rating,blueberryyogart,1.0,0.0,,,,,,3
,1975.0,,1975.0,500.0,stim,single-stim-button,55,194370,0.0-54.0,dietary_decision,True,0,,Bad,1975.0,taste_rating,sbdietbar,-1.0,1.0,,,,,,3
,1378.0,,1378.0,500.0,stim,single-stim-button,56,196256,0.0-55.0,dietary_decision,True,0,,Neutral,1378.0,taste_rating,cranberries,0.0,2.0,,,,,,3
,2294.0,,2294.0,500.0,stim,single-stim-button,57,199057,0.0-56.0,dietary_decision,True,0,,Neutral,2294.0,taste_rating,orange,0.0,3.0,,,,,,3
,1039.0,,1039.0,500.0,stim,single-stim-button,58,200606,0.0-57.0,dietary_decision,True,0,,Good,1039.0,taste_rating,grannysmith,1.0,4.0,,,,,,3
,2278.0,,2278.0,500.0,stim,single-stim-button,59,203399,0.0-58.0,dietary_decision,True,0,,Good,2278.0,taste_rating,keeblerfudgestripes,1.0,5.0,,,,,,3
,1751.0,,1751.0,500.0,stim,single-stim-button,60,205659,0.0-59.0,dietary_decision,True,0,,Neutral,1751.0,taste_rating,Lindt,0.0,6.0,,,,,,3
,2306.0,,2306.0,500.0,stim,single-stim-button,61,208473,0.0-60.0,dietary_decision,True,0,,Neutral,2306.0,taste_rating,wheatcrisps,0.0,7.0,,,,,,3
,1872.0,,1872.0,500.0,stim,single-stim-button,62,210860,0.0-61.0,dietary_decision,True,0,,Neutral,1872.0,taste_rating,specialKbar,0.0,8.0,,,,,,3
,2498.0,,2498.0,500.0,stim,single-stim-button,63,213864,0.0-62.0,dietary_decision,True,0,,Neutral,2498.0,taste_rating,cellery,0.0,9.0,,,,,,3
,1786.0,,1786.0,500.0,stim,single-stim-button,64,216158,0.0-63.0,dietary_decision,True,0,,Very_Bad,1786.0,taste_rating,brocollincauliflower,-2.0,10.0,,,,,,3
,1229.0,,1229.0,500.0,stim,single-stim-button,65,217890,0.0-64.0,dietary_decision,True,0,,Good,1229.0,taste_rating,whitegrapes,1.0,11.0,,,,,,3
,1757.0,,1757.0,500.0,stim,single-stim-button,66,220148,0.0-65.0,dietary_decision,True,0,,Neutral,1757.0,taste_rating,cherryicecream,0.0,12.0,,,,,,3
,1573.0,,1573.0,500.0,stim,single-stim-button,67,222224,0.0-66.0,dietary_decision,True,0,,Neutral,1573.0,taste_rating,HoHo,0.0,13.0,,,,,,3
,1541.0,,1541.0,500.0,stim,single-stim-button,68,224272,0.0-67.0,dietary_decision,True,0,,Good,1541.0,taste_rating,uTwix,1.0,14.0,,,,,,3
,2198.0,,2198.0,500.0,stim,single-stim-button,69,226982,0.0-68.0,dietary_decision,True,0,,Neutral,2198.0,taste_rating,ruffles,0.0,15.0,,,,,,3
,1499.0,,1499.0,500.0,stim,single-stim-button,70,228988,0.0-69.0,dietary_decision,True,0,,Neutral,1499.0,taste_rating,Reeses,0.0,16.0,,,,,,3
,1853.0,,1853.0,500.0,stim,single-stim-button,71,231352,0.0-70.0,dietary_decision,True,0,,Neutral,1853.0,taste_rating,Ghiradelli,0.0,17.0,,,,,,3
,2582.0,,2582.0,500.0,stim,single-stim-button,72,234435,0.0-71.0,dietary_decision,True,0,,Bad,2582.0,taste_rating,butterfinger,-1.0,18.0,,,,,,3
,1514.0,,1514.0,500.0,stim,single-stim-button,73,236455,0.0-72.0,dietary_decision,True,0,,Neutral,1514.0,taste_rating,wwmuffin,0.0,19.0,,,,,,3
,1873.0,,1873.0,500.0,stim,single-stim-button,74,238828,0.0-73.0,dietary_decision,True,0,,Bad,1873.0,taste_rating,MrsFields,-1.0,20.0,,,,,,3
,1757.0,,1757.0,500.0,stim,single-stim-button,75,241086,0.0-74.0,dietary_decision,True,0,,Bad,1757.0,taste_rating,strawberries,-1.0,21.0,,,,,,3
,1856.0,,1856.0,500.0,stim,single-stim-button,76,243442,0.0-75.0,dietary_decision,True,0,,Neutral,1856.0,taste_rating,icecreamsandwich,0.0,22.0,,,,,,3
,1454.0,,1454.0,500.0,stim,single-stim-button,77,245408,0.0-76.0,dietary_decision,True,0,,Neutral,1454.0,taste_rating,redgrapes,0.0,23.0,,,,,,3
,3260.0,,3260.0,500.0,stim,single-stim-button,78,249177,0.0-77.0,dietary_decision,True,0,,Neutral,3260.0,taste_rating,slimfastV,0.0,24.0,,,,,,3
,1916.0,,1916.0,500.0,stim,single-stim-button,79,251605,0.0-78.0,dietary_decision,True,0,,Bad,1916.0,taste_rating,strussel,-1.0,25.0,,,,,,3
,1843.0,,1843.0,500.0,stim,single-stim-button,80,253950,0.0-79.0,dietary_decision,True,0,,Bad,1843.0,taste_rating,FamousAmos,-1.0,26.0,,,,,,3
,1397.0,,1397.0,500.0,stim,single-stim-button,81,255863,0.0-80.0,dietary_decision,True,0,,Very_Good,1397.0,taste_rating,banana,2.0,27.0,,,,,,3
,1955.0,,1955.0,500.0,stim,single-stim-button,82,258319,0.0-81.0,dietary_decision,True,0,,Very_Good,1955.0,taste_rating,cookiencream,2.0,28.0,,,,,,3
,1713.0,,1713.0,500.0,stim,single-stim-button,83,260543,0.0-82.0,dietary_decision,True,0,,Neutral,1713.0,taste_rating,ffraspsorbet,0.0,29.0,,,,,,3
,1334.0,,1334.0,500.0,stim,single-stim-button,84,262392,0.0-83.0,dietary_decision,True,0,,Good,1334.0,taste_rating,reddelicious,1.0,30.0,,,,,,3
,2270.0,,2270.0,500.0,stim,single-stim-button,85,265166,0.0-84.0,dietary_decision,True,0,,Neutral,2270.0,taste_rating,mixedyogart,0.0,31.0,,,,,,3
,2014.0,,2014.0,500.0,stim,single-stim-button,86,267686,0.0-85.0,dietary_decision,True,0,,Neutral,2014.0,taste_rating,slimfastC,0.0,32.0,,,,,,3
,1190.0,,1190.0,500.0,stim,single-stim-button,87,269388,0.0-86.0,dietary_decision,True,0,,Neutral,1190.0,taste_rating,100Grand,0.0,33.0,,,,,,3
,1988.0,,1988.0,500.0,stim,single-stim-button,88,271880,0.0-87.0,dietary_decision,True,0,,Neutral,1988.0,taste_rating,frozenyogart,0.0,34.0,,,,,,3
,1927.0,,1927.0,500.0,stim,single-stim-button,89,274321,0.0-88.0,dietary_decision,True,0,,Bad,1927.0,taste_rating,sbcrackers,-1.0,35.0,,,,,,3
,1982.0,,1982.0,500.0,stim,single-stim-button,90,276806,0.0-89.0,dietary_decision,True,0,,Neutral,1982.0,taste_rating,raisins,0.0,36.0,,,,,,3
,1768.0,,1768.0,500.0,stim,single-stim-button,91,279080,0.0-90.0,dietary_decision,True,0,,Bad,1768.0,taste_rating,FlamingCheetos,-1.0,37.0,,,,,,3
,2362.0,,2362.0,500.0,stim,single-stim-button,92,281958,0.0-91.0,dietary_decision,True,0,,Neutral,2362.0,taste_rating,cookies,0.0,38.0,,,,,,3
,1249.0,,1249.0,500.0,stim,single-stim-button,93,283717,0.0-92.0,dietary_decision,True,0,,Neutral,1249.0,taste_rating,ChipsAhoy,0.0,39.0,,,,,,3
,2486.0,,2486.0,500.0,stim,single-stim-button,94,286708,0.0-93.0,dietary_decision,True,0,,Very_Good,2486.0,taste_rating,Oreos,2.0,40.0,,,,,,3
,2382.0,,2382.0,500.0,stim,single-stim-button,95,289592,0.0-94.0,dietary_decision,True,0,,Neutral,2382.0,taste_rating,orangejello,0.0,41.0,,,,,,3
,1911.0,,1911.0,500.0,stim,single-stim-button,96,292005,0.0-95.0,dietary_decision,True,0,,Very_Good,1911.0,taste_rating,KitKat,2.0,42.0,,,,,,3
,1279.0,,1279.0,500.0,stim,single-stim-button,97,293786,0.0-96.0,dietary_decision,True,0,,Good,1279.0,taste_rating,uToberlorone,1.0,43.0,,,,,,3
,2256.0,,2256.0,500.0,stim,single-stim-button,98,296545,0.0-97.0,dietary_decision,True,0,,Good,2256.0,taste_rating,Doritosranch,1.0,44.0,,,,,,3
,3036.0,,3036.0,500.0,stim,single-stim-button,99,300083,0.0-98.0,dietary_decision,True,0,,Neutral,3036.0,taste_rating,carrots,0.0,45.0,,,,,,3
,995.0,,995.0,500.0,stim,single-stim-button,100,301591,0.0-99.0,dietary_decision,True,0,,Neutral,995.0,taste_rating,keeblerrainbow,0.0,46.0,,,,,,3
,1552.0,,1552.0,500.0,stim,single-stim-button,101,303645,0.0-100.0,dietary_decision,True,0,,Bad,1552.0,taste_rating,RiceKrispyTreat,-1.0,47.0,,,,,,3
,2075.0,,2075.0,500.0,stim,single-stim-button,102,306221,0.0-101.0,dietary_decision,True,0,,Good,2075.0,taste_rating,laysclassic,1.0,48.0,,,,,,3
,1403.0,,1403.0,500.0,stim,single-stim-button,103,308128,0.0-102.0,dietary_decision,True,0,,Good,1403.0,taste_rating,wwbrownie,1.0,49.0,,,,,,3
,3110.0,,3110.0,500.0,stim,single-stim-button,55,182687,0.0-54.0,dietary_decision,True,0,,Good,3110.0,taste_rating,redgrapes,1.0,1.0,,,,,,4
,2095.0,,2095.0,500.0,stim,single-stim-button,56,185294,0.0-55.0,dietary_decision,True,0,,Bad,2095.0,taste_rating,HoHo,-1.0,2.0,,,,,,4
,1405.0,,1405.0,500.0,stim,single-stim-button,57,187212,0.0-56.0,dietary_decision,True,0,,Bad,1405.0,taste_rating,banana,-1.0,3.0,,,,,,4
,1401.0,,1401.0,500.0,stim,single-stim-button,58,189125,0.0-57.0,dietary_decision,True,0,,Bad,1401.0,taste_rating,100Grand,-1.0,4.0,,,,,,4
,795.0,,795.0,500.0,stim,single-stim-button,59,190433,0.0-58.0,dietary_decision,True,0,,Bad,795.0,taste_rating,ChipsAhoy,-1.0,5.0,,,,,,4
,610.0,,610.0,500.0,stim,single-stim-button,60,191557,0.0-59.0,dietary_decision,True,0,,Bad,610.0,taste_rating,orangejello,-1.0,6.0,,,,,,4
,610.0,,610.0,500.0,stim,single-stim-button,61,192676,0.0-60.0,dietary_decision,True,0,,Bad,610.0,taste_rating,orange,-1.0,7.0,,,,,,4
,660.0,,660.0,500.0,stim,single-stim-button,62,193848,0.0-61.0,dietary_decision,True,0,,Bad,660.0,taste_rating,wwbrownie,-1.0,8.0,,,,,,4
,627.0,,627.0,500.0,stim,single-stim-button,63,194976,0.0-62.0,dietary_decision,True,0,,Bad,627.0,taste_rating,raisins,-1.0,9.0,,,,,,4
,655.0,,655.0,500.0,stim,single-stim-button,64,196142,0.0-63.0,dietary_decision,True,0,,Bad,655.0,taste_rating,cellery,-1.0,10.0,,,,,,4
,641.0,,641.0,500.0,stim,single-stim-button,65,197296,0.0-64.0,dietary_decision,True,0,,Bad,641.0,taste_rating,frozenyogart,-1.0,11.0,,,,,,4
,1702.0,,1702.0,500.0,stim,single-stim-button,67,204028,0.0-66.0,dietary_decision,True,0,,Neutral,1702.0,taste_rating,ffraspsorbet,0.0,13.0,,,,,,4
,2624.0,,2624.0,500.0,stim,single-stim-button,68,207166,0.0-67.0,dietary_decision,True,0,,Good,2624.0,taste_rating,grannysmith,1.0,14.0,,,,,,4
,1621.0,,1621.0,500.0,stim,single-stim-button,69,209298,0.0-68.0,dietary_decision,True,0,,Neutral,1621.0,taste_rating,uToberlorone,0.0,15.0,,,,,,4
,1338.0,,1338.0,500.0,stim,single-stim-button,70,211145,0.0-69.0,dietary_decision,True,0,,Bad,1338.0,taste_rating,MrsFields,-1.0,16.0,,,,,,4
,1466.0,,1466.0,500.0,stim,single-stim-button,71,213125,0.0-70.0,dietary_decision,True,0,,Bad,1466.0,taste_rating,sbdietbar,-1.0,17.0,,,,,,4
,1889.0,,1889.0,500.0,stim,single-stim-button,72,215529,0.0-71.0,dietary_decision,True,0,,Bad,1889.0,taste_rating,slimfastV,-1.0,18.0,,,,,,4
,1373.0,,1373.0,500.0,stim,single-stim-button,73,217415,0.0-72.0,dietary_decision,True,0,,Bad,1373.0,taste_rating,ruffles,-1.0,19.0,,,,,,4
,988.0,,988.0,500.0,stim,single-stim-button,74,218918,0.0-73.0,dietary_decision,True,0,,Bad,988.0,taste_rating,strussel,-1.0,20.0,,,,,,4
,656.0,,656.0,500.0,stim,single-stim-button,75,220084,0.0-74.0,dietary_decision,True,0,,Bad,656.0,taste_rating,keeblerrainbow,-1.0,21.0,,,,,,4
,608.0,,608.0,500.0,stim,single-stim-button,76,221205,0.0-75.0,dietary_decision,True,0,,Bad,608.0,taste_rating,Ghiradelli,-1.0,22.0,,,,,,4
,593.0,,593.0,500.0,stim,single-stim-button,77,222308,0.0-76.0,dietary_decision,True,0,,Bad,593.0,taste_rating,mixedyogart,-1.0,23.0,,,,,,4
,655.0,,655.0,500.0,stim,single-stim-button,78,223474,0.0-77.0,dietary_decision,True,0,,Bad,655.0,taste_rating,wheatcrisps,-1.0,24.0,,,,,,4
,1312.0,,1312.0,500.0,stim,single-stim-button,79,225298,0.0-78.0,dietary_decision,True,0,,Neutral,1312.0,taste_rating,FamousAmos,0.0,25.0,,,,,,4
,719.0,,719.0,500.0,stim,single-stim-button,80,226530,0.0-79.0,dietary_decision,True,0,,Bad,719.0,taste_rating,butterfinger,-1.0,26.0,,,,,,4
,985.0,,985.0,500.0,stim,single-stim-button,81,228029,0.0-80.0,dietary_decision,True,0,,Neutral,985.0,taste_rating,keeblerfudgestripes,0.0,27.0,,,,,,4
,910.0,,910.0,500.0,stim,single-stim-button,82,229439,0.0-81.0,dietary_decision,True,0,,Bad,910.0,taste_rating,cookies,-1.0,28.0,,,,,,4
,1031.0,,1031.0,500.0,stim,single-stim-button,83,230980,0.0-82.0,dietary_decision,True,0,,Bad,1031.0,taste_rating,Reeses,-1.0,29.0,,,,,,4
,1001.0,,1001.0,500.0,stim,single-stim-button,84,232493,0.0-83.0,dietary_decision,True,0,,Bad,1001.0,taste_rating,icecreamsandwich,-1.0,30.0,,,,,,4
,2032.0,,2032.0,500.0,stim,single-stim-button,85,235036,0.0-84.0,dietary_decision,True,0,,Bad,2032.0,taste_rating,carrots,-1.0,31.0,,,,,,4
,721.0,,721.0,500.0,stim,single-stim-button,86,236268,0.0-85.0,dietary_decision,True,0,,Bad,721.0,taste_rating,FlamingCheetos,-1.0,32.0,,,,,,4
,659.0,,659.0,500.0,stim,single-stim-button,87,237443,0.0-86.0,dietary_decision,True,0,,Bad,659.0,taste_rating,strawberries,-1.0,33.0,,,,,,4
,1990.0,,1990.0,500.0,stim,single-stim-button,88,239944,0.0-87.0,dietary_decision,True,0,,Very_Good,1990.0,taste_rating,reddelicious,2.0,34.0,,,,,,4
,1642.0,,1642.0,500.0,stim,single-stim-button,89,242100,0.0-88.0,dietary_decision,True,0,,Bad,1642.0,taste_rating,slimfastC,-1.0,35.0,,,,,,4
,1821.0,,1821.0,500.0,stim,single-stim-button,90,244430,0.0-89.0,dietary_decision,True,0,,Bad,1821.0,taste_rating,Doritosranch,-1.0,36.0,,,,,,4
,1175.0,,1175.0,500.0,stim,single-stim-button,91,246106,0.0-90.0,dietary_decision,True,0,,Bad,1175.0,taste_rating,blueberryyogart,-1.0,37.0,,,,,,4
,1409.0,,1409.0,500.0,stim,single-stim-button,92,248023,0.0-91.0,dietary_decision,True,0,,Neutral,1409.0,taste_rating,RiceKrispyTreat,0.0,38.0,,,,,,4
,882.0,,882.0,500.0,stim,single-stim-button,93,249417,0.0-92.0,dietary_decision,True,0,,Neutral,882.0,taste_rating,wwmuffin,0.0,39.0,,,,,,4
,907.0,,907.0,500.0,stim,single-stim-button,94,250832,0.0-93.0,dietary_decision,True,0,,Bad,907.0,taste_rating,specialKbar,-1.0,40.0,,,,,,4
,693.0,,693.0,500.0,stim,single-stim-button,95,252038,0.0-94.0,dietary_decision,True,0,,Neutral,693.0,taste_rating,cherryicecream,0.0,41.0,,,,,,4
,599.0,,599.0,500.0,stim,single-stim-button,96,253139,0.0-95.0,dietary_decision,True,0,,Bad,599.0,taste_rating,whitegrapes,-1.0,42.0,,,,,,4
,538.0,,538.0,500.0,stim,single-stim-button,97,254183,0.0-96.0,dietary_decision,True,0,,Neutral,538.0,taste_rating,cookiencream,0.0,43.0,,,,,,4
,964.0,,964.0,500.0,stim,single-stim-button,98,255662,0.0-97.0,dietary_decision,True,0,,Good,964.0,taste_rating,Lindt,1.0,44.0,,,,,,4
,1031.0,,1031.0,500.0,stim,single-stim-button,99,257205,0.0-98.0,dietary_decision,True,0,,Neutral,1031.0,taste_rating,sbcrackers,0.0,45.0,,,,,,4
,503.0,,503.0,500.0,stim,single-stim-button,100,258220,0.0-99.0,dietary_decision,True,0,,Neutral,503.0,taste_rating,brocollincauliflower,0.0,46.0,,,,,,4
,452.0,,452.0,500.0,stim,single-stim-button,101,259185,0.0-100.0,dietary_decision,True,0,,Neutral,452.0,taste_rating,KitKat,0.0,47.0,,,,,,4
,314.0,,314.0,500.0,stim,single-stim-button,102,260012,0.0-101.0,dietary_decision,True,0,,Neutral,314.0,taste_rating,cranberries,0.0,48.0,,,,,,4
,470.0,,470.0,500.0,stim,single-stim-button,103,260997,0.0-102.0,dietary_decision,True,0,,Neutral,470.0,taste_rating,uTwix,0.0,49.0,,,,,,4
,3163.0,,3163.0,500.0,stim,single-stim-button,54,168117,0.0-53.0,dietary_decision,True,0,,Neutral,3163.0,taste_rating,HoHo,0.0,0.0,,,,,,5
,1495.0,,1495.0,500.0,stim,single-stim-button,55,170123,0.0-54.0,dietary_decision,True,0,,Neutral,1495.0,taste_rating,reddelicious,0.0,1.0,,,,,,5
,2597.0,,2597.0,500.0,stim,single-stim-button,56,173221,0.0-55.0,dietary_decision,True,0,,Very_Good,2597.0,taste_rating,cookiencream,2.0,2.0,,,,,,5
,1694.0,,1694.0,500.0,stim,single-stim-button,57,175427,0.0-56.0,dietary_decision,True,0,,Neutral,1694.0,taste_rating,carrots,0.0,3.0,,,,,,5
,1407.0,,1407.0,500.0,stim,single-stim-button,58,177349,0.0-57.0,dietary_decision,True,0,,Neutral,1407.0,taste_rating,cellery,0.0,4.0,,,,,,5
,1531.0,,1531.0,500.0,stim,single-stim-button,59,179392,0.0-58.0,dietary_decision,True,0,,Good,1531.0,taste_rating,mixedyogart,1.0,5.0,,,,,,5
,1487.0,,1487.0,500.0,stim,single-stim-button,60,181381,0.0-59.0,dietary_decision,True,0,,Good,1487.0,taste_rating,uToberlorone,1.0,6.0,,,,,,5
,1557.0,,1557.0,500.0,stim,single-stim-button,61,183439,0.0-60.0,dietary_decision,True,0,,Neutral,1557.0,taste_rating,wheatcrisps,0.0,7.0,,,,,,5
,1399.0,,1399.0,500.0,stim,single-stim-button,62,185350,0.0-61.0,dietary_decision,True,0,,Good,1399.0,taste_rating,Lindt,1.0,8.0,,,,,,5
,1342.0,,1342.0,500.0,stim,single-stim-button,63,187201,0.0-62.0,dietary_decision,True,0,,Neutral,1342.0,taste_rating,RiceKrispyTreat,0.0,9.0,,,,,,5
,1683.0,,1683.0,500.0,stim,single-stim-button,64,189400,0.0-63.0,dietary_decision,True,0,,Good,1683.0,taste_rating,Ghiradelli,1.0,10.0,,,,,,5
,1549.0,,1549.0,500.0,stim,single-stim-button,65,191457,0.0-64.0,dietary_decision,True,0,,Neutral,1549.0,taste_rating,banana,0.0,11.0,,,,,,5
,2486.0,,2486.0,500.0,stim,single-stim-button,66,194458,0.0-65.0,dietary_decision,True,0,,Neutral,2486.0,taste_rating,ffraspsorbet,0.0,12.0,,,,,,5
,2063.0,,2063.0,500.0,stim,single-stim-button,67,197036,0.0-66.0,dietary_decision,True,0,,Very_Good,2063.0,taste_rating,Doritosranch,2.0,13.0,,,,,,5
,1408.0,,1408.0,500.0,stim,single-stim-button,68,198953,0.0-67.0,dietary_decision,True,0,,Good,1408.0,taste_rating,wwmuffin,1.0,14.0,,,,,,5
,1214.0,,1214.0,500.0,stim,single-stim-button,69,200675,0.0-68.0,dietary_decision,True,0,,Good,1214.0,taste_rating,KitKat,1.0,15.0,,,,,,5
,1666.0,,1666.0,500.0,stim,single-stim-button,70,202852,0.0-69.0,dietary_decision,True,0,,Bad,1666.0,taste_rating,cranberries,-1.0,16.0,,,,,,5
,1923.0,,1923.0,500.0,stim,single-stim-button,71,205276,0.0-70.0,dietary_decision,True,0,,Very_Good,1923.0,taste_rating,keeblerrainbow,2.0,17.0,,,,,,5
,1520.0,,1520.0,500.0,stim,single-stim-button,72,207302,0.0-71.0,dietary_decision,True,0,,Neutral,1520.0,taste_rating,cookies,0.0,18.0,,,,,,5
,2598.0,,2598.0,500.0,stim,single-stim-button,73,210413,0.0-72.0,dietary_decision,True,0,,Bad,2598.0,taste_rating,sbdietbar,-1.0,19.0,,,,,,5
,2251.0,,2251.0,500.0,stim,single-stim-button,74,213179,0.0-73.0,dietary_decision,True,0,,Neutral,2251.0,taste_rating,specialKbar,0.0,20.0,,,,,,5
,1412.0,,1412.0,500.0,stim,single-stim-button,75,215099,0.0-74.0,dietary_decision,True,0,,Good,1412.0,taste_rating,Oreos,1.0,21.0,,,,,,5
,1676.0,,1676.0,500.0,stim,single-stim-button,76,217278,0.0-75.0,dietary_decision,True,0,,Neutral,1676.0,taste_rating,grannysmith,0.0,22.0,,,,,,5
,1865.0,,1865.0,500.0,stim,single-stim-button,77,219643,0.0-76.0,dietary_decision,True,0,,Good,1865.0,taste_rating,strawberries,1.0,23.0,,,,,,5
,1716.0,,1716.0,500.0,stim,single-stim-button,78,221871,0.0-77.0,dietary_decision,True,0,,Bad,1716.0,taste_rating,sbcrackers,-1.0,24.0,,,,,,5
,1463.0,,1463.0,500.0,stim,single-stim-button,79,223845,0.0-78.0,dietary_decision,True,0,,Neutral,1463.0,taste_rating,cherryicecream,0.0,25.0,,,,,,5
,2569.0,,2569.0,500.0,stim,single-stim-button,80,226925,0.0-79.0,dietary_decision,True,0,,Very_Good,2569.0,taste_rating,icecreamsandwich,2.0,26.0,,,,,,5
,2046.0,,2046.0,500.0,stim,single-stim-button,81,229485,0.0-80.0,dietary_decision,True,0,,Good,2046.0,taste_rating,Reeses,1.0,27.0,,,,,,5
,1839.0,,1839.0,500.0,stim,single-stim-button,82,231837,0.0-81.0,dietary_decision,True,0,,Neutral,1839.0,taste_rating,redgrapes,0.0,28.0,,,,,,5
,1694.0,,1694.0,500.0,stim,single-stim-button,83,234045,0.0-82.0,dietary_decision,True,0,,Good,1694.0,taste_rating,uTwix,1.0,29.0,,,,,,5
,1732.0,,1732.0,500.0,stim,single-stim-button,84,236278,0.0-83.0,dietary_decision,True,0,,Good,1732.0,taste_rating,frozenyogart,1.0,30.0,,,,,,5
,1143.0,,1143.0,500.0,stim,single-stim-button,85,237921,0.0-84.0,dietary_decision,True,0,,Very_Good,1143.0,taste_rating,laysclassic,2.0,31.0,,,,,,5
,2461.0,,2461.0,500.0,stim,single-stim-button,86,240895,0.0-85.0,dietary_decision,True,0,,Good,2461.0,taste_rating,blueberryyogart,1.0,32.0,,,,,,5
,1294.0,,1294.0,500.0,stim,single-stim-button,87,242697,0.0-86.0,dietary_decision,True,0,,Very_Good,1294.0,taste_rating,MrsFields,2.0,33.0,,,,,,5
,1503.0,,1503.0,500.0,stim,single-stim-button,88,244714,0.0-87.0,dietary_decision,True,0,,Good,1503.0,taste_rating,butterfinger,1.0,34.0,,,,,,5
,1636.0,,1636.0,500.0,stim,single-stim-button,89,246861,0.0-88.0,dietary_decision,True,0,,Neutral,1636.0,taste_rating,keeblerfudgestripes,0.0,35.0,,,,,,5
,1152.0,,1152.0,500.0,stim,single-stim-button,90,248527,0.0-89.0,dietary_decision,True,0,,Good,1152.0,taste_rating,FamousAmos,1.0,36.0,,,,,,5
,1698.0,,1698.0,500.0,stim,single-stim-button,91,250740,0.0-90.0,dietary_decision,True,0,,Neutral,1698.0,taste_rating,slimfastV,0.0,37.0,,,,,,5
,2296.0,,2296.0,500.0,stim,single-stim-button,92,253543,0.0-91.0,dietary_decision,True,0,,Bad,2296.0,taste_rating,raisins,-1.0,38.0,,,,,,5
,2386.0,,2386.0,500.0,stim,single-stim-button,93,256435,0.0-92.0,dietary_decision,True,0,,Good,2386.0,taste_rating,orangejello,1.0,39.0,,,,,,5
,1819.0,,1819.0,500.0,stim,single-stim-button,94,258764,0.0-93.0,dietary_decision,True,0,,Bad,1819.0,taste_rating,brocollincauliflower,-1.0,40.0,,,,,,5
,1735.0,,1735.0,500.0,stim,single-stim-button,95,261013,0.0-94.0,dietary_decision,True,0,,Neutral,1735.0,taste_rating,whitegrapes,0.0,41.0,,,,,,5
,1670.0,,1670.0,500.0,stim,single-stim-button,96,263195,0.0-95.0,dietary_decision,True,0,,Good,1670.0,taste_rating,slimfastC,1.0,42.0,,,,,,5
,1239.0,,1239.0,500.0,stim,single-stim-button,97,264947,0.0-96.0,dietary_decision,True,0,,Neutral,1239.0,taste_rating,ChipsAhoy,0.0,43.0,,,,,,5
,3124.0,,3124.0,500.0,stim,single-stim-button,98,268574,0.0-97.0,dietary_decision,True,0,,Neutral,3124.0,taste_rating,ruffles,0.0,44.0,,,,,,5
,1435.0,,1435.0,500.0,stim,single-stim-button,99,270511,0.0-98.0,dietary_decision,True,0,,Good,1435.0,taste_rating,FlamingCheetos,1.0,45.0,,,,,,5
,1535.0,,1535.0,500.0,stim,single-stim-button,100,272552,0.0-99.0,dietary_decision,True,0,,Very_Good,1535.0,taste_rating,wwbrownie,2.0,46.0,,,,,,5
,3135.0,,3135.0,500.0,stim,single-stim-button,101,276188,0.0-100.0,dietary_decision,True,0,,Neutral,3135.0,taste_rating,orange,0.0,47.0,,,,,,5
,1647.0,,1647.0,500.0,stim,single-stim-button,102,278339,0.0-101.0,dietary_decision,True,0,,Very_Good,1647.0,taste_rating,100Grand,2.0,48.0,,,,,,5
,1900.0,,1900.0,500.0,stim,single-stim-button,103,280741,0.0-102.0,dietary_decision,True,0,,Good,1900.0,taste_rating,strussel,1.0,49.0,,,,,,5
,2491.0,,2491.0,500.0,stim,single-stim-button,4,18662,0.0-3.0,dietary_decision,True,0,,Very_Bad,2491.0,taste_rating,laysclassic,-2.0,1.0,,,,,,6
,1378.0,,1378.0,500.0,stim,single-stim-button,5,20541,0.0-4.0,dietary_decision,True,0,,Very_Bad,1378.0,taste_rating,cellery,-2.0,2.0,,,,,,6
,1939.0,,1939.0,500.0,stim,single-stim-button,6,22982,0.0-5.0,dietary_decision,True,0,,Good,1939.0,taste_rating,banana,1.0,3.0,,,,,,6
,2340.0,,2340.0,500.0,stim,single-stim-button,7,25824,0.0-6.0,dietary_decision,True,0,,Good,2340.0,taste_rating,specialKbar,1.0,4.0,,,,,,6
,2494.0,,2494.0,500.0,stim,single-stim-button,8,28819,0.0-7.0,dietary_decision,True,0,,Good,2494.0,taste_rating,wheatcrisps,1.0,5.0,,,,,,6
,2129.0,,2129.0,500.0,stim,single-stim-button,9,31449,0.0-8.0,dietary_decision,True,0,,Very_Bad,2129.0,taste_rating,wwmuffin,-2.0,6.0,,,,,,6
,1782.0,,1782.0,500.0,stim,single-stim-button,10,33733,0.0-9.0,dietary_decision,True,0,,Very_Bad,1782.0,taste_rating,icecreamsandwich,-2.0,7.0,,,,,,6
,1911.0,,1911.0,500.0,stim,single-stim-button,11,36145,0.0-10.0,dietary_decision,True,0,,Very_Good,1911.0,taste_rating,reddelicious,2.0,8.0,,,,,,6
,1568.0,,1568.0,500.0,stim,single-stim-button,14,47224,0.0-13.0,dietary_decision,True,0,,Very_Bad,1568.0,taste_rating,wwbrownie,-2.0,11.0,,,,,,6
,1237.0,,1237.0,500.0,stim,single-stim-button,15,48963,0.0-14.0,dietary_decision,True,0,,Very_Bad,1237.0,taste_rating,slimfastC,-2.0,12.0,,,,,,6
,2548.0,,2548.0,500.0,stim,single-stim-button,16,52013,0.0-15.0,dietary_decision,True,0,,Very_Bad,2548.0,taste_rating,butterfinger,-2.0,13.0,,,,,,6
,878.0,,878.0,500.0,stim,single-stim-button,17,53391,0.0-16.0,dietary_decision,True,0,,Bad,878.0,taste_rating,keeblerrainbow,-1.0,14.0,,,,,,6
,529.0,,529.0,500.0,stim,single-stim-button,18,54422,0.0-17.0,dietary_decision,True,0,,Good,529.0,taste_rating,Doritosranch,1.0,15.0,,,,,,6
,451.0,,451.0,500.0,stim,single-stim-button,19,55374,0.0-18.0,dietary_decision,True,0,,Bad,451.0,taste_rating,ruffles,-1.0,16.0,,,,,,6
,461.0,,461.0,500.0,stim,single-stim-button,20,56336,0.0-19.0,dietary_decision,True,0,,Very_Good,461.0,taste_rating,FlamingCheetos,2.0,17.0,,,,,,6
,1099.0,,1099.0,500.0,stim,single-stim-button,21,57936,0.0-20.0,dietary_decision,True,0,,Very_Bad,1099.0,taste_rating,cookiencream,-2.0,18.0,,,,,,6
,398.0,,398.0,500.0,stim,single-stim-button,22,58835,0.0-21.0,dietary_decision,True,0,,Good,398.0,taste_rating,Ghiradelli,1.0,19.0,,,,,,6
,340.0,,340.0,500.0,stim,single-stim-button,23,59678,0.0-22.0,dietary_decision,True,0,,Bad,340.0,taste_rating,whitegrapes,-1.0,20.0,,,,,,6
,876.0,,876.0,500.0,stim,single-stim-button,24,61054,0.0-23.0,dietary_decision,True,0,,Very_Bad,876.0,taste_rating,Lindt,-2.0,21.0,,,,,,6
,1607.0,,1607.0,500.0,stim,single-stim-button,25,63165,0.0-24.0,dietary_decision,True,0,,Very_Bad,1607.0,taste_rating,Reeses,-2.0,22.0,,,,,,6
,1697.0,,1697.0,500.0,stim,single-stim-button,26,65362,0.0-25.0,dietary_decision,True,0,,Very_Bad,1697.0,taste_rating,HoHo,-2.0,23.0,,,,,,6
,1190.0,,1190.0,500.0,stim,single-stim-button,27,67053,0.0-26.0,dietary_decision,True,0,,Very_Bad,1190.0,taste_rating,frozenyogart,-2.0,24.0,,,,,,6
,2927.0,,2927.0,500.0,stim,single-stim-button,28,70482,0.0-27.0,dietary_decision,True,0,,Good,2927.0,taste_rating,raisins,1.0,25.0,,,,,,6
,1823.0,,1823.0,500.0,stim,single-stim-button,29,72806,0.0-28.0,dietary_decision,True,0,,Very_Bad,1823.0,taste_rating,ffraspsorbet,-2.0,26.0,,,,,,6
,1307.0,,1307.0,500.0,stim,single-stim-button,30,74616,0.0-29.0,dietary_decision,True,0,,Very_Bad,1307.0,taste_rating,Oreos,-2.0,27.0,,,,,,6
,2106.0,,2106.0,500.0,stim,single-stim-button,31,77222,0.0-30.0,dietary_decision,True,0,,Good,2106.0,taste_rating,cranberries,1.0,28.0,,,,,,6
,1990.0,,1990.0,500.0,stim,single-stim-button,32,79714,0.0-31.0,dietary_decision,True,0,,Good,1990.0,taste_rating,brocollincauliflower,1.0,29.0,,,,,,6
,1499.0,,1499.0,500.0,stim,single-stim-button,33,81714,0.0-32.0,dietary_decision,True,0,,Good,1499.0,taste_rating,ChipsAhoy,1.0,30.0,,,,,,6
,1306.0,,1306.0,500.0,stim,single-stim-button,34,83522,0.0-33.0,dietary_decision,True,0,,Good,1306.0,taste_rating,redgrapes,1.0,31.0,,,,,,6
,1806.0,,1806.0,500.0,stim,single-stim-button,35,85829,0.0-34.0,dietary_decision,True,0,,Very_Bad,1806.0,taste_rating,slimfastV,-2.0,32.0,,,,,,6
,2140.0,,2140.0,500.0,stim,single-stim-button,36,88470,0.0-35.0,dietary_decision,True,0,,Neutral,2140.0,taste_rating,blueberryyogart,0.0,33.0,,,,,,6
,2169.0,,2169.0,500.0,stim,single-stim-button,37,91141,0.0-36.0,dietary_decision,True,0,,Very_Bad,2169.0,taste_rating,100Grand,-2.0,34.0,,,,,,6
,2061.0,,2061.0,500.0,stim,single-stim-button,38,93702,0.0-37.0,dietary_decision,True,0,,Very_Bad,2061.0,taste_rating,orangejello,-2.0,35.0,,,,,,6
,1489.0,,1489.0,500.0,stim,single-stim-button,39,95693,0.0-38.0,dietary_decision,True,0,,Very_Bad,1489.0,taste_rating,uToberlorone,-2.0,36.0,,,,,,6
,1813.0,,1813.0,500.0,stim,single-stim-button,40,98007,0.0-39.0,dietary_decision,True,0,,Very_Bad,1813.0,taste_rating,keeblerfudgestripes,-2.0,37.0,,,,,,6
,1901.0,,1901.0,500.0,stim,single-stim-button,41,100410,0.0-40.0,dietary_decision,True,0,,Very_Good,1901.0,taste_rating,orange,2.0,38.0,,,,,,6
,1821.0,,1821.0,500.0,stim,single-stim-button,42,102733,0.0-41.0,dietary_decision,True,0,,Very_Bad,1821.0,taste_rating,strussel,-2.0,39.0,,,,,,6
,2839.0,,2839.0,500.0,stim,single-stim-button,43,106072,0.0-42.0,dietary_decision,True,0,,Very_Good,2839.0,taste_rating,cherryicecream,2.0,40.0,,,,,,6
,1328.0,,1328.0,500.0,stim,single-stim-button,44,107902,0.0-43.0,dietary_decision,True,0,,Bad,1328.0,taste_rating,uTwix,-1.0,41.0,,,,,,6
,829.0,,829.0,500.0,stim,single-stim-button,45,109233,0.0-44.0,dietary_decision,True,0,,Neutral,829.0,taste_rating,FamousAmos,0.0,42.0,,,,,,6
,475.0,,475.0,500.0,stim,single-stim-button,46,110208,0.0-45.0,dietary_decision,True,0,,Bad,475.0,taste_rating,KitKat,-1.0,43.0,,,,,,6
,591.0,,591.0,500.0,stim,single-stim-button,47,111301,0.0-46.0,dietary_decision,True,0,,Very_Bad,591.0,taste_rating,sbcrackers,-2.0,44.0,,,,,,6
,557.0,,557.0,500.0,stim,single-stim-button,48,112359,0.0-47.0,dietary_decision,True,0,,Neutral,557.0,taste_rating,RiceKrispyTreat,0.0,45.0,,,,,,6
,404.0,,404.0,500.0,stim,single-stim-button,49,113264,0.0-48.0,dietary_decision,True,0,,Good,404.0,taste_rating,mixedyogart,1.0,46.0,,,,,,6
,460.0,,460.0,500.0,stim,single-stim-button,50,114225,0.0-49.0,dietary_decision,True,0,,Very_Good,460.0,taste_rating,strawberries,2.0,47.0,,,,,,6
,545.0,,545.0,500.0,stim,single-stim-button,51,115272,0.0-50.0,dietary_decision,True,0,,Bad,545.0,taste_rating,grannysmith,-1.0,48.0,,,,,,6
,538.0,,538.0,500.0,stim,single-stim-button,52,116311,0.0-51.0,dietary_decision,True,0,,Very_Bad,538.0,taste_rating,carrots,-2.0,49.0,,,,,,6
,1322.0,,1322.0,500.0,stim,single-stim-button,54,129965,0.0-53.0,dietary_decision,True,0,,Very_Good,1322.0,taste_rating,wwmuffin,2.0,0.0,,,,,,7
,1310.0,,1310.0,500.0,stim,single-stim-button,55,131776,0.0-54.0,dietary_decision,True,0,,Neutral,1310.0,taste_rating,slimfastC,0.0,1.0,,,,,,7
,1207.0,,1207.0,500.0,stim,single-stim-button,56,133488,0.0-55.0,dietary_decision,True,0,,Neutral,1207.0,taste_rating,Oreos,0.0,2.0,,,,,,7
,1623.0,,1623.0,500.0,stim,single-stim-button,57,135613,0.0-56.0,dietary_decision,True,0,,Neutral,1623.0,taste_rating,strussel,0.0,3.0,,,,,,7
,1398.0,,1398.0,500.0,stim,single-stim-button,58,137527,0.0-57.0,dietary_decision,True,0,,Bad,1398.0,taste_rating,banana,-1.0,4.0,,,,,,7
,1281.0,,1281.0,500.0,stim,single-stim-button,59,139309,0.0-58.0,dietary_decision,True,0,,Very_Good,1281.0,taste_rating,HoHo,2.0,5.0,,,,,,7
,1421.0,,1421.0,500.0,stim,single-stim-button,60,141230,0.0-59.0,dietary_decision,True,0,,Neutral,1421.0,taste_rating,specialKbar,0.0,6.0,,,,,,7
,1300.0,,1300.0,500.0,stim,single-stim-button,61,143034,0.0-60.0,dietary_decision,True,0,,Good,1300.0,taste_rating,icecreamsandwich,1.0,7.0,,,,,,7
,1405.0,,1405.0,500.0,stim,single-stim-button,62,144944,0.0-61.0,dietary_decision,True,0,,Good,1405.0,taste_rating,slimfastV,1.0,8.0,,,,,,7
,2203.0,,2203.0,500.0,stim,single-stim-button,63,147650,0.0-62.0,dietary_decision,True,0,,Very_Good,2203.0,taste_rating,KitKat,2.0,9.0,,,,,,7
,1295.0,,1295.0,500.0,stim,single-stim-button,64,149453,0.0-63.0,dietary_decision,True,0,,Good,1295.0,taste_rating,cookies,1.0,10.0,,,,,,7
,906.0,,906.0,500.0,stim,single-stim-button,65,150863,0.0-64.0,dietary_decision,True,0,,Good,906.0,taste_rating,MrsFields,1.0,11.0,,,,,,7
,1487.0,,1487.0,500.0,stim,single-stim-button,66,152856,0.0-65.0,dietary_decision,True,0,,Bad,1487.0,taste_rating,Doritosranch,-1.0,12.0,,,,,,7
,1390.0,,1390.0,500.0,stim,single-stim-button,67,154750,0.0-66.0,dietary_decision,True,0,,Good,1390.0,taste_rating,brocollincauliflower,1.0,13.0,,,,,,7
,1493.0,,1493.0,500.0,stim,single-stim-button,68,156749,0.0-67.0,dietary_decision,True,0,,Very_Good,1493.0,taste_rating,cookiencream,2.0,14.0,,,,,,7
,1292.0,,1292.0,500.0,stim,single-stim-button,69,158548,0.0-68.0,dietary_decision,True,0,,Good,1292.0,taste_rating,sbdietbar,1.0,15.0,,,,,,7
,1906.0,,1906.0,500.0,stim,single-stim-button,70,160961,0.0-69.0,dietary_decision,True,0,,Neutral,1906.0,taste_rating,sbcrackers,0.0,16.0,,,,,,7
,1481.0,,1481.0,500.0,stim,single-stim-button,71,162943,0.0-70.0,dietary_decision,True,0,,Good,1481.0,taste_rating,FamousAmos,1.0,17.0,,,,,,7
,1511.0,,1511.0,500.0,stim,single-stim-button,72,164955,0.0-71.0,dietary_decision,True,0,,Good,1511.0,taste_rating,whitegrapes,1.0,18.0,,,,,,7
,1552.0,,1552.0,500.0,stim,single-stim-button,73,167009,0.0-72.0,dietary_decision,True,0,,Bad,1552.0,taste_rating,reddelicious,-1.0,19.0,,,,,,7
,1575.0,,1575.0,500.0,stim,single-stim-button,74,169085,0.0-73.0,dietary_decision,True,0,,Bad,1575.0,taste_rating,Ghiradelli,-1.0,20.0,,,,,,7
,1887.0,,1887.0,500.0,stim,single-stim-button,75,171472,0.0-74.0,dietary_decision,True,0,,Good,1887.0,taste_rating,cranberries,1.0,21.0,,,,,,7
,1496.0,,1496.0,500.0,stim,single-stim-button,76,173468,0.0-75.0,dietary_decision,True,0,,Very_Good,1496.0,taste_rating,blueberryyogart,2.0,22.0,,,,,,7
,2405.0,,2405.0,500.0,stim,single-stim-button,77,176378,0.0-76.0,dietary_decision,True,0,,Good,2405.0,taste_rating,uToberlorone,1.0,23.0,,,,,,7
,2573.0,,2573.0,500.0,stim,single-stim-button,78,179454,0.0-77.0,dietary_decision,True,0,,Very_Bad,2573.0,taste_rating,wheatcrisps,-2.0,24.0,,,,,,7
,2142.0,,2142.0,500.0,stim,single-stim-button,79,182096,0.0-78.0,dietary_decision,True,0,,Bad,2142.0,taste_rating,RiceKrispyTreat,-1.0,25.0,,,,,,7
,1771.0,,1771.0,500.0,stim,single-stim-button,80,184368,0.0-79.0,dietary_decision,True,0,,Very_Bad,1771.0,taste_rating,keeblerrainbow,-2.0,26.0,,,,,,7
,1998.0,,1998.0,500.0,stim,single-stim-button,81,186866,0.0-80.0,dietary_decision,True,0,,Good,1998.0,taste_rating,ChipsAhoy,1.0,27.0,,,,,,7
,1488.0,,1488.0,500.0,stim,single-stim-button,82,188864,0.0-81.0,dietary_decision,True,0,,Bad,1488.0,taste_rating,keeblerfudgestripes,-1.0,28.0,,,,,,7
,2445.0,,2445.0,500.0,stim,single-stim-button,83,191815,0.0-82.0,dietary_decision,True,0,,Very_Good,2445.0,taste_rating,100Grand,2.0,29.0,,,,,,7
,1976.0,,1976.0,500.0,stim,single-stim-button,84,194291,0.0-83.0,dietary_decision,True,0,,Bad,1976.0,taste_rating,carrots,-1.0,30.0,,,,,,7
,1548.0,,1548.0,500.0,stim,single-stim-button,85,196345,0.0-84.0,dietary_decision,True,0,,Good,1548.0,taste_rating,strawberries,1.0,31.0,,,,,,7
,2001.0,,2001.0,500.0,stim,single-stim-button,86,198858,0.0-85.0,dietary_decision,True,0,,Bad,2001.0,taste_rating,ruffles,-1.0,32.0,,,,,,7
,1649.0,,1649.0,500.0,stim,single-stim-button,87,201009,0.0-86.0,dietary_decision,True,0,,Good,1649.0,taste_rating,mixedyogart,1.0,33.0,,,,,,7
,1572.0,,1572.0,500.0,stim,single-stim-button,88,203082,0.0-87.0,dietary_decision,True,0,,Very_Good,1572.0,taste_rating,butterfinger,2.0,34.0,,,,,,7
,1525.0,,1525.0,500.0,stim,single-stim-button,89,205108,0.0-88.0,dietary_decision,True,0,,Good,1525.0,taste_rating,laysclassic,1.0,35.0,,,,,,7
,1692.0,,1692.0,500.0,stim,single-stim-button,90,207300,0.0-89.0,dietary_decision,True,0,,Good,1692.0,taste_rating,redgrapes,1.0,36.0,,,,,,7
,1595.0,,1595.0,500.0,stim,single-stim-button,91,209395,0.0-90.0,dietary_decision,True,0,,Very_Good,1595.0,taste_rating,Lindt,2.0,37.0,,,,,,7
,1804.0,,1804.0,500.0,stim,single-stim-button,92,211700,0.0-91.0,dietary_decision,True,0,,Neutral,1804.0,taste_rating,grannysmith,0.0,38.0,,,,,,7
,1763.0,,1763.0,500.0,stim,single-stim-button,93,213964,0.0-92.0,dietary_decision,True,0,,Neutral,1763.0,taste_rating,orange,0.0,39.0,,,,,,7
,1936.0,,1936.0,500.0,stim,single-stim-button,94,216403,0.0-93.0,dietary_decision,True,0,,Good,1936.0,taste_rating,frozenyogart,1.0,40.0,,,,,,7
,2239.0,,2239.0,500.0,stim,single-stim-button,95,219144,0.0-94.0,dietary_decision,True,0,,Good,2239.0,taste_rating,wwbrownie,1.0,41.0,,,,,,7
,1570.0,,1570.0,500.0,stim,single-stim-button,96,221215,0.0-95.0,dietary_decision,True,0,,Good,1570.0,taste_rating,Reeses,1.0,42.0,,,,,,7
,1752.0,,1752.0,500.0,stim,single-stim-button,97,223467,0.0-96.0,dietary_decision,True,0,,Very_Good,1752.0,taste_rating,cherryicecream,2.0,43.0,,,,,,7
,1609.0,,1609.0,500.0,stim,single-stim-button,98,225578,0.0-97.0,dietary_decision,True,0,,Very_Good,1609.0,taste_rating,ffraspsorbet,2.0,44.0,,,,,,7
,1490.0,,1490.0,500.0,stim,single-stim-button,99,227570,0.0-98.0,dietary_decision,True,0,,Good,1490.0,taste_rating,uTwix,1.0,45.0,,,,,,7
,2688.0,,2688.0,500.0,stim,single-stim-button,100,230758,0.0-99.0,dietary_decision,True,0,,Neutral,2688.0,taste_rating,raisins,0.0,46.0,,,,,,7
,2268.0,,2268.0,500.0,stim,single-stim-button,101,233541,0.0-100.0,dietary_decision,True,0,,Bad,2268.0,taste_rating,FlamingCheetos,-1.0,47.0,,,,,,7
,2055.0,,2055.0,500.0,stim,single-stim-button,102,236097,0.0-101.0,dietary_decision,True,0,,Good,2055.0,taste_rating,cellery,1.0,48.0,,,,,,7
,1982.0,,1982.0,500.0,stim,single-stim-button,103,238581,0.0-102.0,dietary_decision,True,0,,Very_Bad,1982.0,taste_rating,orangejello,-2.0,49.0,,,,,,7
,1015.0,,1015.0,500.0,stim,single-stim-button,54,125188,0.0-53.0,dietary_decision,True,0,,Very_Good,1015.0,taste_rating,Oreos,2.0,0.0,,,,,,8
,1408.0,,1408.0,500.0,stim,single-stim-button,55,127098,0.0-54.0,dietary_decision,True,0,,Good,1408.0,taste_rating,frozenyogart,1.0,1.0,,,,,,8
,731.0,,731.0,500.0,stim,single-stim-button,56,128330,0.0-55.0,dietary_decision,True,0,,Very_Good,731.0,taste_rating,banana,2.0,2.0,,,,,,8
,1016.0,,1016.0,500.0,stim,single-stim-button,57,129848,0.0-56.0,dietary_decision,True,0,,Very_Good,1016.0,taste_rating,wwbrownie,2.0,3.0,,,,,,8
,794.0,,794.0,500.0,stim,single-stim-button,58,131143,0.0-57.0,dietary_decision,True,0,,Very_Good,794.0,taste_rating,grannysmith,2.0,4.0,,,,,,8
,762.0,,762.0,500.0,stim,single-stim-button,59,132408,0.0-58.0,dietary_decision,True,0,,Very_Good,762.0,taste_rating,keeblerfudgestripes,2.0,5.0,,,,,,8
,542.0,,542.0,500.0,stim,single-stim-button,60,133452,0.0-59.0,dietary_decision,True,0,,Very_Good,542.0,taste_rating,MrsFields,2.0,6.0,,,,,,8
,1465.0,,1465.0,500.0,stim,single-stim-button,61,135418,0.0-60.0,dietary_decision,True,0,,Very_Good,1465.0,taste_rating,ffraspsorbet,2.0,7.0,,,,,,8
,404.0,,404.0,500.0,stim,single-stim-button,62,136324,0.0-61.0,dietary_decision,True,0,,Very_Good,404.0,taste_rating,wheatcrisps,2.0,8.0,,,,,,8
,403.0,,403.0,500.0,stim,single-stim-button,63,137229,0.0-62.0,dietary_decision,True,0,,Very_Good,403.0,taste_rating,whitegrapes,2.0,9.0,,,,,,8
,370.0,,370.0,500.0,stim,single-stim-button,64,138101,0.0-63.0,dietary_decision,True,0,,Very_Good,370.0,taste_rating,orangejello,2.0,10.0,,,,,,8
,306.0,,306.0,500.0,stim,single-stim-button,65,138908,0.0-64.0,dietary_decision,True,0,,Very_Good,306.0,taste_rating,cherryicecream,2.0,11.0,,,,,,8
,207.0,,207.0,500.0,stim,single-stim-button,66,139617,0.0-65.0,dietary_decision,True,0,,Very_Good,207.0,taste_rating,sbdietbar,2.0,12.0,,,,,,8
,665.0,,665.0,500.0,stim,single-stim-button,67,140784,0.0-66.0,dietary_decision,True,0,,Very_Good,665.0,taste_rating,ChipsAhoy,2.0,13.0,,,,,,8
,321.0,,321.0,500.0,stim,single-stim-button,68,141607,0.0-67.0,dietary_decision,True,0,,Very_Good,321.0,taste_rating,carrots,2.0,14.0,,,,,,8
,258.0,,258.0,500.0,stim,single-stim-button,69,142366,0.0-68.0,dietary_decision,True,0,,Very_Good,258.0,taste_rating,FlamingCheetos,2.0,15.0,,,,,,8
,404.0,,404.0,500.0,stim,single-stim-button,70,143271,0.0-69.0,dietary_decision,True,0,,Very_Good,404.0,taste_rating,cranberries,2.0,16.0,,,,,,8
,323.0,,323.0,500.0,stim,single-stim-button,71,144096,0.0-70.0,dietary_decision,True,0,,Very_Good,323.0,taste_rating,KitKat,2.0,17.0,,,,,,8
,387.0,,387.0,500.0,stim,single-stim-button,72,144984,0.0-71.0,dietary_decision,True,0,,Very_Good,387.0,taste_rating,Doritosranch,2.0,18.0,,,,,,8
,297.0,,297.0,500.0,stim,single-stim-button,73,145783,0.0-72.0,dietary_decision,True,0,,Very_Good,297.0,taste_rating,butterfinger,2.0,19.0,,,,,,8
,232.0,,232.0,500.0,stim,single-stim-button,74,146517,0.0-73.0,dietary_decision,True,0,,Very_Good,232.0,taste_rating,Lindt,2.0,20.0,,,,,,8
,265.0,,265.0,500.0,stim,single-stim-button,75,147283,0.0-74.0,dietary_decision,True,0,,Very_Good,265.0,taste_rating,icecreamsandwich,2.0,21.0,,,,,,8
,323.0,,323.0,500.0,stim,single-stim-button,76,148108,0.0-75.0,dietary_decision,True,0,,Very_Good,323.0,taste_rating,ruffles,2.0,22.0,,,,,,8
,313.0,,313.0,500.0,stim,single-stim-button,77,148923,0.0-76.0,dietary_decision,True,0,,Very_Good,313.0,taste_rating,Reeses,2.0,23.0,,,,,,8
,183.0,,183.0,500.0,stim,single-stim-button,78,149608,0.0-77.0,dietary_decision,True,0,,Very_Good,183.0,taste_rating,laysclassic,2.0,24.0,,,,,,8
,231.0,,231.0,500.0,stim,single-stim-button,79,150341,0.0-78.0,dietary_decision,True,0,,Very_Good,231.0,taste_rating,reddelicious,2.0,25.0,,,,,,8
,159.0,,159.0,500.0,stim,single-stim-button,80,151001,0.0-79.0,dietary_decision,True,0,,Very_Good,159.0,taste_rating,RiceKrispyTreat,2.0,26.0,,,,,,8
,241.0,,241.0,500.0,stim,single-stim-button,81,151744,0.0-80.0,dietary_decision,True,0,,Very_Good,241.0,taste_rating,mixedyogart,2.0,27.0,,,,,,8
,151.0,,151.0,500.0,stim,single-stim-button,82,152396,0.0-81.0,dietary_decision,True,0,,Very_Good,151.0,taste_rating,keeblerrainbow,2.0,28.0,,,,,,8
,183.0,,183.0,500.0,stim,single-stim-button,83,153082,0.0-82.0,dietary_decision,True,0,,Very_Good,183.0,taste_rating,HoHo,2.0,29.0,,,,,,8
,217.0,,217.0,500.0,stim,single-stim-button,84,153799,0.0-83.0,dietary_decision,True,0,,Very_Good,217.0,taste_rating,cookies,2.0,30.0,,,,,,8
,339.0,,339.0,500.0,stim,single-stim-button,85,154640,0.0-84.0,dietary_decision,True,0,,Very_Good,339.0,taste_rating,blueberryyogart,2.0,31.0,,,,,,8
,314.0,,314.0,500.0,stim,single-stim-button,86,155455,0.0-85.0,dietary_decision,True,0,,Very_Good,314.0,taste_rating,redgrapes,2.0,32.0,,,,,,8
,184.0,,184.0,500.0,stim,single-stim-button,87,156140,0.0-86.0,dietary_decision,True,0,,Very_Good,184.0,taste_rating,strawberries,2.0,33.0,,,,,,8
,747.0,,747.0,500.0,stim,single-stim-button,88,157388,0.0-87.0,dietary_decision,True,0,,Very_Good,747.0,taste_rating,wwmuffin,2.0,34.0,,,,,,8
,412.0,,412.0,500.0,stim,single-stim-button,89,158301,0.0-88.0,dietary_decision,True,0,,Very_Good,412.0,taste_rating,specialKbar,2.0,35.0,,,,,,8
,378.0,,378.0,500.0,stim,single-stim-button,90,159181,0.0-89.0,dietary_decision,True,0,,Very_Good,378.0,taste_rating,100Grand,2.0,36.0,,,,,,8
,217.0,,217.0,500.0,stim,single-stim-button,91,159899,0.0-90.0,dietary_decision,True,0,,Very_Good,217.0,taste_rating,strussel,2.0,37.0,,,,,,8
,281.0,,281.0,500.0,stim,single-stim-button,92,160682,0.0-91.0,dietary_decision,True,0,,Very_Good,281.0,taste_rating,cookiencream,2.0,38.0,,,,,,8
,249.0,,249.0,500.0,stim,single-stim-button,93,161432,0.0-92.0,dietary_decision,True,0,,Very_Good,249.0,taste_rating,slimfastC,2.0,39.0,,,,,,8
,165.0,,165.0,500.0,stim,single-stim-button,94,162100,0.0-93.0,dietary_decision,True,0,,Very_Good,165.0,taste_rating,uToberlorone,2.0,40.0,,,,,,8
,224.0,,224.0,500.0,stim,single-stim-button,95,162826,0.0-94.0,dietary_decision,True,0,,Very_Good,224.0,taste_rating,FamousAmos,2.0,41.0,,,,,,8
,225.0,,225.0,500.0,stim,single-stim-button,96,163552,0.0-95.0,dietary_decision,True,0,,Very_Good,225.0,taste_rating,orange,2.0,42.0,,,,,,8
,184.0,,184.0,500.0,stim,single-stim-button,97,164237,0.0-96.0,dietary_decision,True,0,,Very_Good,184.0,taste_rating,slimfastV,2.0,43.0,,,,,,8
,355.0,,355.0,500.0,stim,single-stim-button,98,165093,0.0-97.0,dietary_decision,True,0,,Very_Good,355.0,taste_rating,brocollincauliflower,2.0,44.0,,,,,,8
,1292.0,,1292.0,500.0,stim,single-stim-button,99,166887,0.0-98.0,dietary_decision,True,0,,Very_Good,1292.0,taste_rating,Ghiradelli,2.0,45.0,,,,,,8
,853.0,,853.0,500.0,stim,single-stim-button,100,168242,0.0-99.0,dietary_decision,True,0,,Very_Good,853.0,taste_rating,uTwix,2.0,46.0,,,,,,8
,720.0,,720.0,500.0,stim,single-stim-button,101,169464,0.0-100.0,dietary_decision,True,0,,Very_Good,720.0,taste_rating,sbcrackers,2.0,47.0,,,,,,8
,3534.0,,3534.0,500.0,stim,single-stim-button,102,173499,0.0-101.0,dietary_decision,True,0,,Neutral,3534.0,taste_rating,cellery,0.0,48.0,,,,,,8
,1792.0,,1792.0,500.0,stim,single-stim-button,103,175792,0.0-102.0,dietary_decision,True,0,,Neutral,1792.0,taste_rating,raisins,0.0,49.0,,,,,,8
,1506.0,,1506.0,500.0,stim,single-stim-button,54,162206,0.0-53.0,dietary_decision,True,0,,Good,1506.0,taste_rating,cherryicecream,1.0,0.0,,,,,,9
,2068.0,,2068.0,500.0,stim,single-stim-button,55,164784,0.0-54.0,dietary_decision,True,0,,Neutral,2068.0,taste_rating,cellery,0.0,1.0,,,,,,9
,3107.0,,3107.0,500.0,stim,single-stim-button,56,168407,0.0-55.0,dietary_decision,True,0,,Good,3107.0,taste_rating,slimfastV,1.0,2.0,,,,,,9
,1404.0,,1404.0,500.0,stim,single-stim-button,57,170316,0.0-56.0,dietary_decision,True,0,,Good,1404.0,taste_rating,orangejello,1.0,3.0,,,,,,9
,2406.0,,2406.0,500.0,stim,single-stim-button,58,173228,0.0-57.0,dietary_decision,True,0,,Good,2406.0,taste_rating,MrsFields,1.0,4.0,,,,,,9
,1894.0,,1894.0,500.0,stim,single-stim-button,59,175637,0.0-58.0,dietary_decision,True,0,,Neutral,1894.0,taste_rating,raisins,0.0,5.0,,,,,,9
,1835.0,,1835.0,500.0,stim,single-stim-button,60,177980,0.0-59.0,dietary_decision,True,0,,Good,1835.0,taste_rating,uToberlorone,1.0,6.0,,,,,,9
,1671.0,,1671.0,500.0,stim,single-stim-button,61,180153,0.0-60.0,dietary_decision,True,0,,Neutral,1671.0,taste_rating,FlamingCheetos,0.0,7.0,,,,,,9
,1530.0,,1530.0,500.0,stim,single-stim-button,62,182189,0.0-61.0,dietary_decision,True,0,,Good,1530.0,taste_rating,Ghiradelli,1.0,8.0,,,,,,9
,1258.0,,1258.0,500.0,stim,single-stim-button,63,183963,0.0-62.0,dietary_decision,True,0,,Good,1258.0,taste_rating,orange,1.0,9.0,,,,,,9
,1379.0,,1379.0,500.0,stim,single-stim-button,64,185858,0.0-63.0,dietary_decision,True,0,,Very_Good,1379.0,taste_rating,banana,2.0,10.0,,,,,,9
,981.0,,981.0,500.0,stim,single-stim-button,65,187349,0.0-64.0,dietary_decision,True,0,,Very_Good,981.0,taste_rating,reddelicious,2.0,11.0,,,,,,9
,2159.0,,2159.0,500.0,stim,single-stim-button,66,190024,0.0-65.0,dietary_decision,True,0,,Good,2159.0,taste_rating,ffraspsorbet,1.0,12.0,,,,,,9
,1816.0,,1816.0,500.0,stim,single-stim-button,67,192356,0.0-66.0,dietary_decision,True,0,,Neutral,1816.0,taste_rating,brocollincauliflower,0.0,13.0,,,,,,9
,1867.0,,1867.0,500.0,stim,single-stim-button,68,194730,0.0-67.0,dietary_decision,True,0,,Neutral,1867.0,taste_rating,Oreos,0.0,14.0,,,,,,9
,2432.0,,2432.0,500.0,stim,single-stim-button,69,197665,0.0-68.0,dietary_decision,True,0,,Good,2432.0,taste_rating,uTwix,1.0,15.0,,,,,,9
,2648.0,,2648.0,500.0,stim,single-stim-button,70,200828,0.0-69.0,dietary_decision,True,0,,Neutral,2648.0,taste_rating,sbdietbar,0.0,16.0,,,,,,9
,2332.0,,2332.0,500.0,stim,single-stim-button,71,203676,0.0-70.0,dietary_decision,True,0,,Good,2332.0,taste_rating,HoHo,1.0,17.0,,,,,,9
,1775.0,,1775.0,500.0,stim,single-stim-button,72,205953,0.0-71.0,dietary_decision,True,0,,Bad,1775.0,taste_rating,ruffles,-1.0,18.0,,,,,,9
,1330.0,,1330.0,500.0,stim,single-stim-button,73,207791,0.0-72.0,dietary_decision,True,0,,Bad,1330.0,taste_rating,RiceKrispyTreat,-1.0,19.0,,,,,,9
,1985.0,,1985.0,500.0,stim,single-stim-button,74,210285,0.0-73.0,dietary_decision,True,0,,Good,1985.0,taste_rating,cookies,1.0,20.0,,,,,,9
,1857.0,,1857.0,500.0,stim,single-stim-button,75,212656,0.0-74.0,dietary_decision,True,0,,Good,1857.0,taste_rating,butterfinger,1.0,21.0,,,,,,9
,1459.0,,1459.0,500.0,stim,single-stim-button,76,214617,0.0-75.0,dietary_decision,True,0,,Very_Good,1459.0,taste_rating,strawberries,2.0,22.0,,,,,,9
,1575.0,,1575.0,500.0,stim,single-stim-button,77,216694,0.0-76.0,dietary_decision,True,0,,Good,1575.0,taste_rating,slimfastC,1.0,23.0,,,,,,9
,1330.0,,1330.0,500.0,stim,single-stim-button,78,218526,0.0-77.0,dietary_decision,True,0,,Good,1330.0,taste_rating,blueberryyogart,1.0,24.0,,,,,,9
,2223.0,,2223.0,500.0,stim,single-stim-button,79,221257,0.0-78.0,dietary_decision,True,0,,Neutral,2223.0,taste_rating,sbcrackers,0.0,25.0,,,,,,9
,1859.0,,1859.0,500.0,stim,single-stim-button,80,223623,0.0-79.0,dietary_decision,True,0,,Good,1859.0,taste_rating,carrots,1.0,26.0,,,,,,9
,2150.0,,2150.0,500.0,stim,single-stim-button,81,226274,0.0-80.0,dietary_decision,True,0,,Good,2150.0,taste_rating,FamousAmos,1.0,27.0,,,,,,9
,2102.0,,2102.0,500.0,stim,single-stim-button,82,228881,0.0-81.0,dietary_decision,True,0,,Neutral,2102.0,taste_rating,wwmuffin,0.0,28.0,,,,,,9
,1434.0,,1434.0,500.0,stim,single-stim-button,83,230817,0.0-82.0,dietary_decision,True,0,,Good,1434.0,taste_rating,KitKat,1.0,29.0,,,,,,9
,2179.0,,2179.0,500.0,stim,single-stim-button,84,233499,0.0-83.0,dietary_decision,True,0,,Neutral,2179.0,taste_rating,specialKbar,0.0,30.0,,,,,,9
,1669.0,,1669.0,500.0,stim,single-stim-button,85,235678,0.0-84.0,dietary_decision,True,0,,Very_Good,1669.0,taste_rating,icecreamsandwich,2.0,31.0,,,,,,9
,1994.0,,1994.0,500.0,stim,single-stim-button,86,238184,0.0-85.0,dietary_decision,True,0,,Good,1994.0,taste_rating,laysclassic,1.0,32.0,,,,,,9
,1794.0,,1794.0,500.0,stim,single-stim-button,87,240481,0.0-86.0,dietary_decision,True,0,,Neutral,1794.0,taste_rating,Reeses,0.0,33.0,,,,,,9
,1941.0,,1941.0,500.0,stim,single-stim-button,88,242924,0.0-87.0,dietary_decision,True,0,,Good,1941.0,taste_rating,Lindt,1.0,34.0,,,,,,9
,2355.0,,2355.0,500.0,stim,single-stim-button,89,245794,0.0-88.0,dietary_decision,True,0,,Good,2355.0,taste_rating,grannysmith,1.0,35.0,,,,,,9
,2553.0,,2553.0,500.0,stim,single-stim-button,90,248850,0.0-89.0,dietary_decision,True,0,,Neutral,2553.0,taste_rating,100Grand,0.0,36.0,,,,,,9
,991.0,,991.0,500.0,stim,single-stim-button,91,250355,0.0-90.0,dietary_decision,True,0,,Neutral,991.0,taste_rating,keeblerfudgestripes,0.0,37.0,,,,,,9
,1860.0,,1860.0,500.0,stim,single-stim-button,92,252727,0.0-91.0,dietary_decision,True,0,,Very_Good,1860.0,taste_rating,cookiencream,2.0,38.0,,,,,,9
,1695.0,,1695.0,500.0,stim,single-stim-button,93,254936,0.0-92.0,dietary_decision,True,0,,Good,1695.0,taste_rating,strussel,1.0,39.0,,,,,,9
,1273.0,,1273.0,500.0,stim,single-stim-button,94,256718,0.0-93.0,dietary_decision,True,0,,Good,1273.0,taste_rating,wwbrownie,1.0,40.0,,,,,,9
,1521.0,,1521.0,500.0,stim,single-stim-button,95,258743,0.0-94.0,dietary_decision,True,0,,Good,1521.0,taste_rating,frozenyogart,1.0,41.0,,,,,,9
,1596.0,,1596.0,500.0,stim,single-stim-button,96,260854,0.0-95.0,dietary_decision,True,0,,Good,1596.0,taste_rating,Doritosranch,1.0,42.0,,,,,,9
,1493.0,,1493.0,500.0,stim,single-stim-button,97,262854,0.0-96.0,dietary_decision,True,0,,Very_Good,1493.0,taste_rating,redgrapes,2.0,43.0,,,,,,9
,2309.0,,2309.0,500.0,stim,single-stim-button,98,265674,0.0-97.0,dietary_decision,True,0,,Neutral,2309.0,taste_rating,cranberries,0.0,44.0,,,,,,9
,2175.0,,2175.0,500.0,stim,single-stim-button,99,268362,0.0-98.0,dietary_decision,True,0,,Neutral,2175.0,taste_rating,wheatcrisps,0.0,45.0,,,,,,9
,1125.0,,1125.0,500.0,stim,single-stim-button,100,270004,0.0-99.0,dietary_decision,True,0,,Neutral,1125.0,taste_rating,whitegrapes,0.0,46.0,,,,,,9
,1637.0,,1637.0,500.0,stim,single-stim-button,101,272150,0.0-100.0,dietary_decision,True,0,,Good,1637.0,taste_rating,mixedyogart,1.0,47.0,,,,,,9
,2104.0,,2104.0,500.0,stim,single-stim-button,102,274756,0.0-101.0,dietary_decision,True,0,,Neutral,2104.0,taste_rating,ChipsAhoy,0.0,48.0,,,,,,9
,1025.0,,1025.0,500.0,stim,single-stim-button,103,276289,0.0-102.0,dietary_decision,True,0,,Neutral,1025.0,taste_rating,keeblerrainbow,0.0,49.0,,,,,,9
,1712.0,,1712.0,500.0,stim,single-stim-button,3,8243,0.0-2.0,dietary_decision,True,0,,Very_Good,1712.0,taste_rating,orange,2.0,0.0,,,,,,10
,1359.0,,1359.0,500.0,stim,single-stim-button,4,10103,0.0-3.0,dietary_decision,True,0,,Good,1359.0,taste_rating,brocollincauliflower,1.0,1.0,,,,,,10
,1294.0,,1294.0,500.0,stim,single-stim-button,5,11899,0.0-4.0,dietary_decision,True,0,,Neutral,1294.0,taste_rating,carrots,0.0,2.0,,,,,,10
,1045.0,,1045.0,500.0,stim,single-stim-button,6,13445,0.0-5.0,dietary_decision,True,0,,Bad,1045.0,taste_rating,cookies,-1.0,3.0,,,,,,10
,1391.0,,1391.0,500.0,stim,single-stim-button,7,15337,0.0-6.0,dietary_decision,True,0,,Good,1391.0,taste_rating,laysclassic,1.0,4.0,,,,,,10
,914.0,,914.0,500.0,stim,single-stim-button,8,16753,0.0-7.0,dietary_decision,True,0,,Good,914.0,taste_rating,Oreos,1.0,5.0,,,,,,10
,988.0,,988.0,500.0,stim,single-stim-button,9,18242,0.0-8.0,dietary_decision,True,0,,Good,988.0,taste_rating,strussel,1.0,6.0,,,,,,10
,1609.0,,1609.0,500.0,stim,single-stim-button,10,20353,0.0-9.0,dietary_decision,True,0,,Good,1609.0,taste_rating,FlamingCheetos,1.0,7.0,,,,,,10
,1593.0,,1593.0,500.0,stim,single-stim-button,11,22448,0.0-10.0,dietary_decision,True,0,,Neutral,1593.0,taste_rating,ruffles,0.0,8.0,,,,,,10
,1416.0,,1416.0,500.0,stim,single-stim-button,12,24366,0.0-11.0,dietary_decision,True,0,,Neutral,1416.0,taste_rating,orangejello,0.0,9.0,,,,,,10
,1311.0,,1311.0,500.0,stim,single-stim-button,13,26178,0.0-12.0,dietary_decision,True,0,,Good,1311.0,taste_rating,keeblerrainbow,1.0,10.0,,,,,,10
,1787.0,,1787.0,500.0,stim,single-stim-button,14,28466,0.0-13.0,dietary_decision,True,0,,Good,1787.0,taste_rating,MrsFields,1.0,11.0,,,,,,10
,1410.0,,1410.0,500.0,stim,single-stim-button,15,30376,0.0-14.0,dietary_decision,True,0,,Good,1410.0,taste_rating,banana,1.0,12.0,,,,,,10
,1368.0,,1368.0,500.0,stim,single-stim-button,16,32245,0.0-15.0,dietary_decision,True,0,,Good,1368.0,taste_rating,100Grand,1.0,13.0,,,,,,10
,2386.0,,2386.0,500.0,stim,single-stim-button,17,35133,0.0-16.0,dietary_decision,True,0,,Very_Good,2386.0,taste_rating,ChipsAhoy,2.0,14.0,,,,,,10
,1821.0,,1821.0,500.0,stim,single-stim-button,18,37455,0.0-17.0,dietary_decision,True,0,,Very_Good,1821.0,taste_rating,reddelicious,2.0,15.0,,,,,,10
,1181.0,,1181.0,500.0,stim,single-stim-button,19,39137,0.0-18.0,dietary_decision,True,0,,Good,1181.0,taste_rating,RiceKrispyTreat,1.0,16.0,,,,,,10
,2265.0,,2265.0,500.0,stim,single-stim-button,20,41903,0.0-19.0,dietary_decision,True,0,,Neutral,2265.0,taste_rating,slimfastV,0.0,17.0,,,,,,10
,1951.0,,1951.0,500.0,stim,single-stim-button,21,44355,0.0-20.0,dietary_decision,True,0,,Good,1951.0,taste_rating,Doritosranch,1.0,18.0,,,,,,10
,1182.0,,1182.0,500.0,stim,single-stim-button,22,46039,0.0-21.0,dietary_decision,True,0,,Neutral,1182.0,taste_rating,sbcrackers,0.0,19.0,,,,,,10
,1279.0,,1279.0,500.0,stim,single-stim-button,23,47818,0.0-22.0,dietary_decision,True,0,,Bad,1279.0,taste_rating,cranberries,-1.0,20.0,,,,,,10
,1690.0,,1690.0,500.0,stim,single-stim-button,24,50010,0.0-23.0,dietary_decision,True,0,,Neutral,1690.0,taste_rating,wheatcrisps,0.0,21.0,,,,,,10
,1171.0,,1171.0,500.0,stim,single-stim-button,25,51683,0.0-24.0,dietary_decision,True,0,,Good,1171.0,taste_rating,uTwix,1.0,22.0,,,,,,10
,1620.0,,1620.0,500.0,stim,single-stim-button,26,53804,0.0-25.0,dietary_decision,True,0,,Good,1620.0,taste_rating,grannysmith,1.0,23.0,,,,,,10
,1456.0,,1456.0,500.0,stim,single-stim-button,27,55760,0.0-26.0,dietary_decision,True,0,,Bad,1456.0,taste_rating,sbdietbar,-1.0,24.0,,,,,,10
,1149.0,,1149.0,500.0,stim,single-stim-button,28,57411,0.0-27.0,dietary_decision,True,0,,Neutral,1149.0,taste_rating,wwbrownie,0.0,25.0,,,,,,10
,979.0,,979.0,500.0,stim,single-stim-button,29,58891,0.0-28.0,dietary_decision,True,0,,Neutral,979.0,taste_rating,HoHo,0.0,26.0,,,,,,10
,1028.0,,1028.0,500.0,stim,single-stim-button,30,60421,0.0-29.0,dietary_decision,True,0,,Good,1028.0,taste_rating,cherryicecream,1.0,27.0,,,,,,10
,1578.0,,1578.0,500.0,stim,single-stim-button,31,62500,0.0-30.0,dietary_decision,True,0,,Neutral,1578.0,taste_rating,mixedyogart,0.0,28.0,,,,,,10
,1295.0,,1295.0,500.0,stim,single-stim-button,32,64297,0.0-31.0,dietary_decision,True,0,,Good,1295.0,taste_rating,Lindt,1.0,29.0,,,,,,10
,946.0,,946.0,500.0,stim,single-stim-button,33,65744,0.0-32.0,dietary_decision,True,0,,Good,946.0,taste_rating,cookiencream,1.0,30.0,,,,,,10
,1804.0,,1804.0,500.0,stim,single-stim-button,34,68049,0.0-33.0,dietary_decision,True,0,,Very_Good,1804.0,taste_rating,whitegrapes,2.0,31.0,,,,,,10
,923.0,,923.0,500.0,stim,single-stim-button,35,69474,0.0-34.0,dietary_decision,True,0,,Good,923.0,taste_rating,slimfastC,1.0,32.0,,,,,,10
,1635.0,,1635.0,500.0,stim,single-stim-button,36,71609,0.0-35.0,dietary_decision,True,0,,Good,1635.0,taste_rating,strawberries,1.0,33.0,,,,,,10
,1860.0,,1860.0,500.0,stim,single-stim-button,37,73971,0.0-36.0,dietary_decision,True,0,,Neutral,1860.0,taste_rating,uToberlorone,0.0,34.0,,,,,,10
,1254.0,,1254.0,500.0,stim,single-stim-button,38,75727,0.0-37.0,dietary_decision,True,0,,Good,1254.0,taste_rating,KitKat,1.0,35.0,,,,,,10
,1504.0,,1504.0,500.0,stim,single-stim-button,39,77733,0.0-38.0,dietary_decision,True,0,,Good,1504.0,taste_rating,keeblerfudgestripes,1.0,36.0,,,,,,10
,1699.0,,1699.0,500.0,stim,single-stim-button,40,79933,0.0-39.0,dietary_decision,True,0,,Good,1699.0,taste_rating,specialKbar,1.0,37.0,,,,,,10
,1651.0,,1651.0,500.0,stim,single-stim-button,41,82087,0.0-40.0,dietary_decision,True,0,,Neutral,1651.0,taste_rating,ffraspsorbet,0.0,38.0,,,,,,10
,1786.0,,1786.0,500.0,stim,single-stim-button,42,84375,0.0-41.0,dietary_decision,True,0,,Good,1786.0,taste_rating,butterfinger,1.0,39.0,,,,,,10
,1158.0,,1158.0,500.0,stim,single-stim-button,43,86034,0.0-42.0,dietary_decision,True,0,,Very_Good,1158.0,taste_rating,wwmuffin,2.0,40.0,,,,,,10
,1689.0,,1689.0,500.0,stim,single-stim-button,44,88225,0.0-43.0,dietary_decision,True,0,,Neutral,1689.0,taste_rating,blueberryyogart,0.0,41.0,,,,,,10
,981.0,,981.0,500.0,stim,single-stim-button,45,89708,0.0-44.0,dietary_decision,True,0,,Good,981.0,taste_rating,FamousAmos,1.0,42.0,,,,,,10
,2143.0,,2143.0,500.0,stim,single-stim-button,46,92353,0.0-45.0,dietary_decision,True,0,,Good,2143.0,taste_rating,cellery,1.0,43.0,,,,,,10
,1664.0,,1664.0,500.0,stim,single-stim-button,47,94519,0.0-46.0,dietary_decision,True,0,,Neutral,1664.0,taste_rating,frozenyogart,0.0,44.0,,,,,,10
,2016.0,,2016.0,500.0,stim,single-stim-button,48,97037,0.0-47.0,dietary_decision,True,0,,Good,2016.0,taste_rating,Ghiradelli,1.0,45.0,,,,,,10
,972.0,,972.0,500.0,stim,single-stim-button,49,98510,0.0-48.0,dietary_decision,True,0,,Good,972.0,taste_rating,icecreamsandwich,1.0,46.0,,,,,,10
,1779.0,,1779.0,500.0,stim,single-stim-button,50,100791,0.0-49.0,dietary_decision,True,0,,Good,1779.0,taste_rating,redgrapes,1.0,47.0,,,,,,10
,1488.0,,1488.0,500.0,stim,single-stim-button,51,102781,0.0-50.0,dietary_decision,True,0,,Good,1488.0,taste_rating,Reeses,1.0,48.0,,,,,,10
,1344.0,,1344.0,500.0,stim,single-stim-button,52,104626,0.0-51.0,dietary_decision,True,0,,Neutral,1344.0,taste_rating,raisins,0.0,49.0,,,,,,10
,3349.0,,3349.0,500.0,stim,single-stim-button,3,27246,0.0-2.0,dietary_decision,True,0,,Very_Good,3349.0,taste_rating,uTwix,2.0,0.0,,,,,,11
,2886.0,,2886.0,500.0,stim,single-stim-button,5,35148,0.0-4.0,dietary_decision,True,0,,Very_Bad,2886.0,taste_rating,slimfastC,-2.0,2.0,,,,,,11
,3248.0,,3248.0,500.0,stim,single-stim-button,6,38911,0.0-5.0,dietary_decision,True,0,,Neutral,3248.0,taste_rating,keeblerrainbow,0.0,3.0,,,,,,11
,2312.0,,2312.0,500.0,stim,single-stim-button,7,41737,0.0-6.0,dietary_decision,True,0,,Bad,2312.0,taste_rating,butterfinger,-1.0,4.0,,,,,,11
,1784.0,,1784.0,500.0,stim,single-stim-button,8,44021,0.0-7.0,dietary_decision,True,0,,Very_Good,1784.0,taste_rating,Lindt,2.0,5.0,,,,,,11
,1537.0,,1537.0,500.0,stim,single-stim-button,9,46069,0.0-8.0,dietary_decision,True,0,,Very_Good,1537.0,taste_rating,100Grand,2.0,6.0,,,,,,11
,1717.0,,1717.0,500.0,stim,single-stim-button,10,48301,0.0-9.0,dietary_decision,True,0,,Neutral,1717.0,taste_rating,reddelicious,0.0,7.0,,,,,,11
,2345.0,,2345.0,500.0,stim,single-stim-button,11,51162,0.0-10.0,dietary_decision,True,0,,Neutral,2345.0,taste_rating,keeblerfudgestripes,0.0,8.0,,,,,,11
,1668.0,,1668.0,500.0,stim,single-stim-button,12,53333,0.0-11.0,dietary_decision,True,0,,Neutral,1668.0,taste_rating,whitegrapes,0.0,9.0,,,,,,11
,3284.0,,3284.0,500.0,stim,single-stim-button,13,57122,0.0-12.0,dietary_decision,True,0,,Good,3284.0,taste_rating,raisins,1.0,10.0,,,,,,11
,1902.0,,1902.0,500.0,stim,single-stim-button,14,59527,0.0-13.0,dietary_decision,True,0,,Good,1902.0,taste_rating,Oreos,1.0,11.0,,,,,,11
,1073.0,,1073.0,500.0,stim,single-stim-button,15,61104,0.0-14.0,dietary_decision,True,0,,Good,1073.0,taste_rating,KitKat,1.0,12.0,,,,,,11
,1186.0,,1186.0,500.0,stim,single-stim-button,16,62795,0.0-15.0,dietary_decision,True,0,,Good,1186.0,taste_rating,uToberlorone,1.0,13.0,,,,,,11
,1887.0,,1887.0,500.0,stim,single-stim-button,17,65187,0.0-16.0,dietary_decision,True,0,,Good,1887.0,taste_rating,cookies,1.0,14.0,,,,,,11
,1219.0,,1219.0,500.0,stim,single-stim-button,18,66906,0.0-17.0,dietary_decision,True,0,,Good,1219.0,taste_rating,blueberryyogart,1.0,15.0,,,,,,11
,1277.0,,1277.0,500.0,stim,single-stim-button,19,68696,0.0-18.0,dietary_decision,True,0,,Good,1277.0,taste_rating,wwmuffin,1.0,16.0,,,,,,11
,1018.0,,1018.0,500.0,stim,single-stim-button,20,70218,0.0-19.0,dietary_decision,True,0,,Good,1018.0,taste_rating,cranberries,1.0,17.0,,,,,,11
,1300.0,,1300.0,500.0,stim,single-stim-button,21,72020,0.0-20.0,dietary_decision,True,0,,Good,1300.0,taste_rating,cherryicecream,1.0,18.0,,,,,,11
,2201.0,,2201.0,500.0,stim,single-stim-button,22,74727,0.0-21.0,dietary_decision,True,0,,Very_Good,2201.0,taste_rating,cookiencream,2.0,19.0,,,,,,11
,2625.0,,2625.0,500.0,stim,single-stim-button,23,77867,0.0-22.0,dietary_decision,True,0,,Good,2625.0,taste_rating,carrots,1.0,20.0,,,,,,11
,3243.0,,3243.0,500.0,stim,single-stim-button,24,81622,0.0-23.0,dietary_decision,True,0,,Neutral,3243.0,taste_rating,orangejello,0.0,21.0,,,,,,11
,2513.0,,2513.0,500.0,stim,single-stim-button,26,89151,0.0-25.0,dietary_decision,True,0,,Neutral,2513.0,taste_rating,strussel,0.0,23.0,,,,,,11
,1704.0,,1704.0,500.0,stim,single-stim-button,27,91356,0.0-26.0,dietary_decision,True,0,,Good,1704.0,taste_rating,wwbrownie,1.0,24.0,,,,,,11
,1456.0,,1456.0,500.0,stim,single-stim-button,28,93328,0.0-27.0,dietary_decision,True,0,,Good,1456.0,taste_rating,mixedyogart,1.0,25.0,,,,,,11
,1640.0,,1640.0,500.0,stim,single-stim-button,29,95481,0.0-28.0,dietary_decision,True,0,,Bad,1640.0,taste_rating,slimfastV,-1.0,26.0,,,,,,11
,1883.0,,1883.0,500.0,stim,single-stim-button,30,97877,0.0-29.0,dietary_decision,True,0,,Neutral,1883.0,taste_rating,MrsFields,0.0,27.0,,,,,,11
,2059.0,,2059.0,500.0,stim,single-stim-button,31,100451,0.0-30.0,dietary_decision,True,0,,Bad,2059.0,taste_rating,brocollincauliflower,-1.0,28.0,,,,,,11
,1697.0,,1697.0,500.0,stim,single-stim-button,32,102650,0.0-31.0,dietary_decision,True,0,,Neutral,1697.0,taste_rating,FamousAmos,0.0,29.0,,,,,,11
,2453.0,,2453.0,500.0,stim,single-stim-button,33,105606,0.0-32.0,dietary_decision,True,0,,Neutral,2453.0,taste_rating,ruffles,0.0,30.0,,,,,,11
,1870.0,,1870.0,500.0,stim,single-stim-button,34,107978,0.0-33.0,dietary_decision,True,0,,Good,1870.0,taste_rating,specialKbar,1.0,31.0,,,,,,11
,1326.0,,1326.0,500.0,stim,single-stim-button,35,109809,0.0-34.0,dietary_decision,True,0,,Good,1326.0,taste_rating,Reeses,1.0,32.0,,,,,,11
,1626.0,,1626.0,500.0,stim,single-stim-button,36,111937,0.0-35.0,dietary_decision,True,0,,Neutral,1626.0,taste_rating,wheatcrisps,0.0,33.0,,,,,,11
,1066.0,,1066.0,500.0,stim,single-stim-button,37,113504,0.0-36.0,dietary_decision,True,0,,Neutral,1066.0,taste_rating,cellery,0.0,34.0,,,,,,11
,2133.0,,2133.0,500.0,stim,single-stim-button,38,116138,0.0-37.0,dietary_decision,True,0,,Neutral,2133.0,taste_rating,redgrapes,0.0,35.0,,,,,,11
,2219.0,,2219.0,500.0,stim,single-stim-button,39,118863,0.0-38.0,dietary_decision,True,0,,Good,2219.0,taste_rating,icecreamsandwich,1.0,36.0,,,,,,11
,1214.0,,1214.0,500.0,stim,single-stim-button,40,120578,0.0-39.0,dietary_decision,True,0,,Neutral,1214.0,taste_rating,ChipsAhoy,0.0,37.0,,,,,,11
,1325.0,,1325.0,500.0,stim,single-stim-button,41,122405,0.0-40.0,dietary_decision,True,0,,Neutral,1325.0,taste_rating,laysclassic,0.0,38.0,,,,,,11
,1392.0,,1392.0,500.0,stim,single-stim-button,42,124312,0.0-41.0,dietary_decision,True,0,,Neutral,1392.0,taste_rating,banana,0.0,39.0,,,,,,11
,1319.0,,1319.0,500.0,stim,single-stim-button,43,126135,0.0-42.0,dietary_decision,True,0,,Neutral,1319.0,taste_rating,FlamingCheetos,0.0,40.0,,,,,,11
,1000.0,,1000.0,500.0,stim,single-stim-button,44,127638,0.0-43.0,dietary_decision,True,0,,Neutral,1000.0,taste_rating,grannysmith,0.0,41.0,,,,,,11
,1657.0,,1657.0,500.0,stim,single-stim-button,45,129803,0.0-44.0,dietary_decision,True,0,,Good,1657.0,taste_rating,HoHo,1.0,42.0,,,,,,11
,1530.0,,1530.0,500.0,stim,single-stim-button,46,131845,0.0-45.0,dietary_decision,True,0,,Good,1530.0,taste_rating,sbdietbar,1.0,43.0,,,,,,11
,1135.0,,1135.0,500.0,stim,single-stim-button,47,133495,0.0-46.0,dietary_decision,True,0,,Good,1135.0,taste_rating,RiceKrispyTreat,1.0,44.0,,,,,,11
,1298.0,,1298.0,500.0,stim,single-stim-button,48,135309,0.0-47.0,dietary_decision,True,0,,Good,1298.0,taste_rating,Doritosranch,1.0,45.0,,,,,,11
,1945.0,,1945.0,500.0,stim,single-stim-button,49,137762,0.0-48.0,dietary_decision,True,0,,Good,1945.0,taste_rating,frozenyogart,1.0,46.0,,,,,,11
,1468.0,,1468.0,500.0,stim,single-stim-button,50,139746,0.0-49.0,dietary_decision,True,0,,Good,1468.0,taste_rating,strawberries,1.0,47.0,,,,,,11
,1704.0,,1704.0,500.0,stim,single-stim-button,51,141962,0.0-50.0,dietary_decision,True,0,,Good,1704.0,taste_rating,Ghiradelli,1.0,48.0,,,,,,11
,1399.0,,1399.0,500.0,stim,single-stim-button,52,143872,0.0-51.0,dietary_decision,True,0,,Neutral,1399.0,taste_rating,orange,0.0,49.0,,,,,,11
,1603.0,,1603.0,500.0,stim,single-stim-button,54,110901,0.0-53.0,dietary_decision,True,0,,Good,1603.0,taste_rating,Doritosranch,1.0,0.0,,,,,,12
,325.0,,325.0,500.0,stim,single-stim-button,55,111728,0.0-54.0,dietary_decision,True,0,,Good,325.0,taste_rating,sbcrackers,1.0,1.0,,,,,,12
,180.0,,180.0,500.0,stim,single-stim-button,56,112410,0.0-55.0,dietary_decision,True,0,,Good,180.0,taste_rating,reddelicious,1.0,2.0,,,,,,12
,644.0,,644.0,500.0,stim,single-stim-button,57,113557,0.0-56.0,dietary_decision,True,0,,Good,644.0,taste_rating,Oreos,1.0,3.0,,,,,,12
,256.0,,256.0,500.0,stim,single-stim-button,58,114315,0.0-57.0,dietary_decision,True,0,,Good,256.0,taste_rating,strawberries,1.0,4.0,,,,,,12
,225.0,,225.0,500.0,stim,single-stim-button,59,115042,0.0-58.0,dietary_decision,True,0,,Good,225.0,taste_rating,Lindt,1.0,5.0,,,,,,12
,377.0,,377.0,500.0,stim,single-stim-button,60,115921,0.0-59.0,dietary_decision,True,0,,Good,377.0,taste_rating,grannysmith,1.0,6.0,,,,,,12
,271.0,,271.0,500.0,stim,single-stim-button,61,116694,0.0-60.0,dietary_decision,True,0,,Good,271.0,taste_rating,whitegrapes,1.0,7.0,,,,,,12
,324.0,,324.0,500.0,stim,single-stim-button,62,117519,0.0-61.0,dietary_decision,True,0,,Good,324.0,taste_rating,blueberryyogart,1.0,8.0,,,,,,12
,247.0,,247.0,500.0,stim,single-stim-button,63,118268,0.0-62.0,dietary_decision,True,0,,Good,247.0,taste_rating,keeblerfudgestripes,1.0,9.0,,,,,,12
,278.0,,278.0,500.0,stim,single-stim-button,64,119048,0.0-63.0,dietary_decision,True,0,,Good,278.0,taste_rating,redgrapes,1.0,10.0,,,,,,12
,442.0,,442.0,500.0,stim,single-stim-button,65,119993,0.0-64.0,dietary_decision,True,0,,Good,442.0,taste_rating,slimfastC,1.0,11.0,,,,,,12
,287.0,,287.0,500.0,stim,single-stim-button,66,120780,0.0-65.0,dietary_decision,True,0,,Good,287.0,taste_rating,ruffles,1.0,12.0,,,,,,12
,208.0,,208.0,500.0,stim,single-stim-button,67,121491,0.0-66.0,dietary_decision,True,0,,Good,208.0,taste_rating,carrots,1.0,13.0,,,,,,12
,423.0,,423.0,500.0,stim,single-stim-button,68,122416,0.0-67.0,dietary_decision,True,0,,Good,423.0,taste_rating,uToberlorone,1.0,14.0,,,,,,12
,180.0,,180.0,500.0,stim,single-stim-button,69,123098,0.0-68.0,dietary_decision,True,0,,Good,180.0,taste_rating,uTwix,1.0,15.0,,,,,,12
,128.0,,128.0,500.0,stim,single-stim-button,70,123728,0.0-69.0,dietary_decision,True,0,,Good,128.0,taste_rating,butterfinger,1.0,16.0,,,,,,12
,232.0,,232.0,500.0,stim,single-stim-button,71,124462,0.0-70.0,dietary_decision,True,0,,Good,232.0,taste_rating,specialKbar,1.0,17.0,,,,,,12
,120.0,,120.0,500.0,stim,single-stim-button,72,125084,0.0-71.0,dietary_decision,True,0,,Good,120.0,taste_rating,wheatcrisps,1.0,18.0,,,,,,12
,145.0,,145.0,500.0,stim,single-stim-button,73,125730,0.0-72.0,dietary_decision,True,0,,Good,145.0,taste_rating,ffraspsorbet,1.0,19.0,,,,,,12
,80.0,,80.0,500.0,stim,single-stim-button,74,126313,0.0-73.0,dietary_decision,True,0,,Good,80.0,taste_rating,laysclassic,1.0,20.0,,,,,,12
,227.0,,227.0,500.0,stim,single-stim-button,75,127042,0.0-74.0,dietary_decision,True,0,,Good,227.0,taste_rating,Ghiradelli,1.0,21.0,,,,,,12
,339.0,,339.0,500.0,stim,single-stim-button,76,127883,0.0-75.0,dietary_decision,True,0,,Good,339.0,taste_rating,sbdietbar,1.0,22.0,,,,,,12
,247.0,,247.0,500.0,stim,single-stim-button,77,128632,0.0-76.0,dietary_decision,True,0,,Good,247.0,taste_rating,HoHo,1.0,23.0,,,,,,12
,197.0,,197.0,500.0,stim,single-stim-button,78,129331,0.0-77.0,dietary_decision,True,0,,Good,197.0,taste_rating,frozenyogart,1.0,24.0,,,,,,12
,645.0,,645.0,500.0,stim,single-stim-button,79,130478,0.0-78.0,dietary_decision,True,0,,Good,645.0,taste_rating,Reeses,1.0,25.0,,,,,,12
,263.0,,263.0,500.0,stim,single-stim-button,80,131243,0.0-79.0,dietary_decision,True,0,,Good,263.0,taste_rating,strussel,1.0,26.0,,,,,,12
,127.0,,127.0,500.0,stim,single-stim-button,81,131872,0.0-80.0,dietary_decision,True,0,,Good,127.0,taste_rating,cookiencream,1.0,27.0,,,,,,12
,621.0,,621.0,500.0,stim,single-stim-button,82,132996,0.0-81.0,dietary_decision,True,0,,Good,621.0,taste_rating,cookies,1.0,28.0,,,,,,12
,220.0,,220.0,500.0,stim,single-stim-button,83,133718,0.0-82.0,dietary_decision,True,0,,Good,220.0,taste_rating,brocollincauliflower,1.0,29.0,,,,,,12
,165.0,,165.0,500.0,stim,single-stim-button,84,134385,0.0-83.0,dietary_decision,True,0,,Good,165.0,taste_rating,keeblerrainbow,1.0,30.0,,,,,,12
,196.0,,196.0,500.0,stim,single-stim-button,85,135083,0.0-84.0,dietary_decision,True,0,,Good,196.0,taste_rating,cranberries,1.0,31.0,,,,,,12
,631.0,,631.0,500.0,stim,single-stim-button,86,136215,0.0-85.0,dietary_decision,True,0,,Good,631.0,taste_rating,cherryicecream,1.0,32.0,,,,,,12
,166.0,,166.0,500.0,stim,single-stim-button,87,136883,0.0-86.0,dietary_decision,True,0,,Good,166.0,taste_rating,orange,1.0,33.0,,,,,,12
,412.0,,412.0,500.0,stim,single-stim-button,88,137798,0.0-87.0,dietary_decision,True,0,,Good,412.0,taste_rating,icecreamsandwich,1.0,34.0,,,,,,12
,321.0,,321.0,500.0,stim,single-stim-button,89,138623,0.0-88.0,dietary_decision,True,0,,Good,321.0,taste_rating,banana,1.0,35.0,,,,,,12
,119.0,,119.0,500.0,stim,single-stim-button,90,139244,0.0-89.0,dietary_decision,True,0,,Good,119.0,taste_rating,wwmuffin,1.0,36.0,,,,,,12
,142.0,,142.0,500.0,stim,single-stim-button,91,139889,0.0-90.0,dietary_decision,True,0,,Good,142.0,taste_rating,mixedyogart,1.0,37.0,,,,,,12
,1117.0,,1117.0,500.0,stim,single-stim-button,92,141508,0.0-91.0,dietary_decision,True,0,,Good,1117.0,taste_rating,FamousAmos,1.0,38.0,,,,,,12
,622.0,,622.0,500.0,stim,single-stim-button,93,142634,0.0-92.0,dietary_decision,True,0,,Good,622.0,taste_rating,FlamingCheetos,1.0,39.0,,,,,,12
,219.0,,219.0,500.0,stim,single-stim-button,94,143354,0.0-93.0,dietary_decision,True,0,,Good,219.0,taste_rating,ChipsAhoy,1.0,40.0,,,,,,12
,219.0,,219.0,500.0,stim,single-stim-button,95,144075,0.0-94.0,dietary_decision,True,0,,Good,219.0,taste_rating,slimfastV,1.0,41.0,,,,,,12
,285.0,,285.0,500.0,stim,single-stim-button,96,144862,0.0-95.0,dietary_decision,True,0,,Good,285.0,taste_rating,100Grand,1.0,42.0,,,,,,12
,284.0,,284.0,500.0,stim,single-stim-button,97,145650,0.0-96.0,dietary_decision,True,0,,Good,284.0,taste_rating,KitKat,1.0,43.0,,,,,,12
,255.0,,255.0,500.0,stim,single-stim-button,98,146407,0.0-97.0,dietary_decision,True,0,,Good,255.0,taste_rating,orangejello,1.0,44.0,,,,,,12
,114.0,,114.0,500.0,stim,single-stim-button,99,147022,0.0-98.0,dietary_decision,True,0,,Good,114.0,taste_rating,raisins,1.0,45.0,,,,,,12
,225.0,,225.0,500.0,stim,single-stim-button,100,147750,0.0-99.0,dietary_decision,True,0,,Good,225.0,taste_rating,wwbrownie,1.0,46.0,,,,,,12
,137.0,,137.0,500.0,stim,single-stim-button,101,148389,0.0-100.0,dietary_decision,True,0,,Good,137.0,taste_rating,cellery,1.0,47.0,,,,,,12
,359.0,,359.0,500.0,stim,single-stim-button,102,149249,0.0-101.0,dietary_decision,True,0,,Good,359.0,taste_rating,RiceKrispyTreat,1.0,48.0,,,,,,12
,354.0,,354.0,500.0,stim,single-stim-button,103,150106,0.0-102.0,dietary_decision,True,0,,Good,354.0,taste_rating,MrsFields,1.0,49.0,,,,,,12
,1936.0,,1936.0,500.0,stim,single-stim-button,54,214047,0.0-53.0,dietary_decision,True,0,,Neutral,1936.0,taste_rating,strussel,0.0,0.0,,,,,,13
,1345.0,,1345.0,500.0,stim,single-stim-button,55,215902,0.0-54.0,dietary_decision,True,0,,Good,1345.0,taste_rating,grannysmith,1.0,1.0,,,,,,13
,2501.0,,2501.0,500.0,stim,single-stim-button,56,218919,0.0-55.0,dietary_decision,True,0,,Good,2501.0,taste_rating,slimfastV,1.0,2.0,,,,,,13
,2658.0,,2658.0,500.0,stim,single-stim-button,57,222079,0.0-56.0,dietary_decision,True,0,,Neutral,2658.0,taste_rating,mixedyogart,0.0,3.0,,,,,,13
,2014.0,,2014.0,500.0,stim,single-stim-button,58,224599,0.0-57.0,dietary_decision,True,0,,Neutral,2014.0,taste_rating,sbcrackers,0.0,4.0,,,,,,13
,1188.0,,1188.0,500.0,stim,single-stim-button,59,226295,0.0-58.0,dietary_decision,True,0,,Neutral,1188.0,taste_rating,brocollincauliflower,0.0,5.0,,,,,,13
,1885.0,,1885.0,500.0,stim,single-stim-button,60,228686,0.0-59.0,dietary_decision,True,0,,Neutral,1885.0,taste_rating,wheatcrisps,0.0,6.0,,,,,,13
,1815.0,,1815.0,500.0,stim,single-stim-button,61,231006,0.0-60.0,dietary_decision,True,0,,Good,1815.0,taste_rating,strawberries,1.0,7.0,,,,,,13
,2166.0,,2166.0,500.0,stim,single-stim-button,62,233687,0.0-61.0,dietary_decision,True,0,,Bad,2166.0,taste_rating,uTwix,-1.0,8.0,,,,,,13
,2109.0,,2109.0,500.0,stim,single-stim-button,63,236311,0.0-62.0,dietary_decision,True,0,,Bad,2109.0,taste_rating,carrots,-1.0,9.0,,,,,,13
,2089.0,,2089.0,500.0,stim,single-stim-button,64,238903,0.0-63.0,dietary_decision,True,0,,Good,2089.0,taste_rating,frozenyogart,1.0,10.0,,,,,,13
,1693.0,,1693.0,500.0,stim,single-stim-button,65,241111,0.0-64.0,dietary_decision,True,0,,Good,1693.0,taste_rating,ChipsAhoy,1.0,11.0,,,,,,13
,2785.0,,2785.0,500.0,stim,single-stim-button,66,244399,0.0-65.0,dietary_decision,True,0,,Neutral,2785.0,taste_rating,specialKbar,0.0,12.0,,,,,,13
,1253.0,,1253.0,500.0,stim,single-stim-button,67,246167,0.0-66.0,dietary_decision,True,0,,Good,1253.0,taste_rating,HoHo,1.0,13.0,,,,,,13
,859.0,,859.0,500.0,stim,single-stim-button,68,247535,0.0-67.0,dietary_decision,True,0,,Good,859.0,taste_rating,sbdietbar,1.0,14.0,,,,,,13
,1284.0,,1284.0,500.0,stim,single-stim-button,69,249334,0.0-68.0,dietary_decision,True,0,,Good,1284.0,taste_rating,cranberries,1.0,15.0,,,,,,13
,860.0,,860.0,500.0,stim,single-stim-button,70,250711,0.0-69.0,dietary_decision,True,0,,Good,860.0,taste_rating,FamousAmos,1.0,16.0,,,,,,13
,1384.0,,1384.0,500.0,stim,single-stim-button,71,252598,0.0-70.0,dietary_decision,True,0,,Neutral,1384.0,taste_rating,wwbrownie,0.0,17.0,,,,,,13
,1414.0,,1414.0,500.0,stim,single-stim-button,72,254519,0.0-71.0,dietary_decision,True,0,,Very_Good,1414.0,taste_rating,Oreos,2.0,18.0,,,,,,13
,1159.0,,1159.0,500.0,stim,single-stim-button,73,256182,0.0-72.0,dietary_decision,True,0,,Very_Good,1159.0,taste_rating,KitKat,2.0,19.0,,,,,,13
,2068.0,,2068.0,500.0,stim,single-stim-button,74,258759,0.0-73.0,dietary_decision,True,0,,Good,2068.0,taste_rating,Ghiradelli,1.0,20.0,,,,,,13
,1830.0,,1830.0,500.0,stim,single-stim-button,75,261095,0.0-74.0,dietary_decision,True,0,,Bad,1830.0,taste_rating,keeblerrainbow,-1.0,21.0,,,,,,13
,1206.0,,1206.0,500.0,stim,single-stim-button,76,262815,0.0-75.0,dietary_decision,True,0,,Good,1206.0,taste_rating,reddelicious,1.0,22.0,,,,,,13
,1108.0,,1108.0,500.0,stim,single-stim-button,77,264439,0.0-76.0,dietary_decision,True,0,,Neutral,1108.0,taste_rating,100Grand,0.0,23.0,,,,,,13
,1351.0,,1351.0,500.0,stim,single-stim-button,78,266295,0.0-77.0,dietary_decision,True,0,,Good,1351.0,taste_rating,cookies,1.0,24.0,,,,,,13
,1158.0,,1158.0,500.0,stim,single-stim-button,79,267959,0.0-78.0,dietary_decision,True,0,,Good,1158.0,taste_rating,MrsFields,1.0,25.0,,,,,,13
,1485.0,,1485.0,500.0,stim,single-stim-button,80,269958,0.0-79.0,dietary_decision,True,0,,Neutral,1485.0,taste_rating,keeblerfudgestripes,0.0,26.0,,,,,,13
,1377.0,,1377.0,500.0,stim,single-stim-button,81,271847,0.0-80.0,dietary_decision,True,0,,Good,1377.0,taste_rating,cookiencream,1.0,27.0,,,,,,13
,2062.0,,2062.0,500.0,stim,single-stim-button,82,274415,0.0-81.0,dietary_decision,True,0,,Bad,2062.0,taste_rating,Doritosranch,-1.0,28.0,,,,,,13
,1915.0,,1915.0,500.0,stim,single-stim-button,83,276839,0.0-82.0,dietary_decision,True,0,,Bad,1915.0,taste_rating,RiceKrispyTreat,-1.0,29.0,,,,,,13
,1159.0,,1159.0,500.0,stim,single-stim-button,84,278503,0.0-83.0,dietary_decision,True,0,,Bad,1159.0,taste_rating,cellery,-1.0,30.0,,,,,,13
,1323.0,,1323.0,500.0,stim,single-stim-button,85,280342,0.0-84.0,dietary_decision,True,0,,Neutral,1323.0,taste_rating,Reeses,0.0,31.0,,,,,,13
,2542.0,,2542.0,500.0,stim,single-stim-button,86,283391,0.0-85.0,dietary_decision,True,0,,Neutral,2542.0,taste_rating,Lindt,0.0,32.0,,,,,,13
,2090.0,,2090.0,500.0,stim,single-stim-button,87,285982,0.0-86.0,dietary_decision,True,0,,Neutral,2090.0,taste_rating,orangejello,0.0,33.0,,,,,,13
,1210.0,,1210.0,500.0,stim,single-stim-button,88,287703,0.0-87.0,dietary_decision,True,0,,Good,1210.0,taste_rating,redgrapes,1.0,34.0,,,,,,13
,1082.0,,1082.0,500.0,stim,single-stim-button,89,289287,0.0-88.0,dietary_decision,True,0,,Good,1082.0,taste_rating,banana,1.0,35.0,,,,,,13
,1074.0,,1074.0,500.0,stim,single-stim-button,90,290863,0.0-89.0,dietary_decision,True,0,,Good,1074.0,taste_rating,whitegrapes,1.0,36.0,,,,,,13
,1497.0,,1497.0,500.0,stim,single-stim-button,91,292871,0.0-90.0,dietary_decision,True,0,,Very_Good,1497.0,taste_rating,laysclassic,2.0,37.0,,,,,,13
,1419.0,,1419.0,500.0,stim,single-stim-button,92,294791,0.0-91.0,dietary_decision,True,0,,Good,1419.0,taste_rating,ffraspsorbet,1.0,38.0,,,,,,13
,1332.0,,1332.0,500.0,stim,single-stim-button,93,296630,0.0-92.0,dietary_decision,True,0,,Neutral,1332.0,taste_rating,butterfinger,0.0,39.0,,,,,,13
,1996.0,,1996.0,500.0,stim,single-stim-button,94,299142,0.0-93.0,dietary_decision,True,0,,Good,1996.0,taste_rating,orange,1.0,40.0,,,,,,13
,1853.0,,1853.0,500.0,stim,single-stim-button,95,301511,0.0-94.0,dietary_decision,True,0,,Good,1853.0,taste_rating,raisins,1.0,41.0,,,,,,13
,1279.0,,1279.0,500.0,stim,single-stim-button,96,303303,0.0-95.0,dietary_decision,True,0,,Neutral,1279.0,taste_rating,blueberryyogart,0.0,42.0,,,,,,13
,1288.0,,1288.0,500.0,stim,single-stim-button,97,305095,0.0-96.0,dietary_decision,True,0,,Neutral,1288.0,taste_rating,uToberlorone,0.0,43.0,,,,,,13
,2116.0,,2116.0,500.0,stim,single-stim-button,98,307719,0.0-97.0,dietary_decision,True,0,,Neutral,2116.0,taste_rating,slimfastC,0.0,44.0,,,,,,13
,2683.0,,2683.0,500.0,stim,single-stim-button,99,310911,0.0-98.0,dietary_decision,True,0,,Neutral,2683.0,taste_rating,wwmuffin,0.0,45.0,,,,,,13
,1788.0,,1788.0,500.0,stim,single-stim-button,100,313215,0.0-99.0,dietary_decision,True,0,,Good,1788.0,taste_rating,icecreamsandwich,1.0,46.0,,,,,,13
,1464.0,,1464.0,500.0,stim,single-stim-button,101,315183,0.0-100.0,dietary_decision,True,0,,Bad,1464.0,taste_rating,FlamingCheetos,-1.0,47.0,,,,,,13
,2895.0,,2895.0,500.0,stim,single-stim-button,102,318591,0.0-101.0,dietary_decision,True,0,,Neutral,2895.0,taste_rating,ruffles,0.0,48.0,,,,,,13
,2083.0,,2083.0,500.0,stim,single-stim-button,103,321176,0.0-102.0,dietary_decision,True,0,,Good,2083.0,taste_rating,cherryicecream,1.0,49.0,,,,,,13
,1947.0,,1947.0,500.0,stim,single-stim-button,54,3692543,0.0-53.0,dietary_decision,True,0,,Good,1947.0,taste_rating,sbcrackers,1.0,0.0,,,,,,14
,1797.0,,1797.0,500.0,stim,single-stim-button,55,3694841,0.0-54.0,dietary_decision,True,0,,Very_Good,1797.0,taste_rating,orange,2.0,1.0,,,,,,14
,1029.0,,1029.0,500.0,stim,single-stim-button,56,3696372,0.0-55.0,dietary_decision,True,0,,Good,1029.0,taste_rating,whitegrapes,1.0,2.0,,,,,,14
,3261.0,,3261.0,500.0,stim,single-stim-button,57,3700134,0.0-56.0,dietary_decision,True,0,,Good,3261.0,taste_rating,uToberlorone,1.0,3.0,,,,,,14
,1135.0,,1135.0,500.0,stim,single-stim-button,58,3701769,0.0-57.0,dietary_decision,True,0,,Neutral,1135.0,taste_rating,FamousAmos,0.0,4.0,,,,,,14
,912.0,,912.0,500.0,stim,single-stim-button,59,3703184,0.0-58.0,dietary_decision,True,0,,Good,912.0,taste_rating,MrsFields,1.0,5.0,,,,,,14
