text,rt,key_press,block_duration,timing_post_trial,trial_id,trial_type,trial_index,time_elapsed,internal_node_id,exp_id,full_screen,focus_shifts,view_history,mouse_click,stim_duration,exp_stage,stim,coded_response,trial_num,reference,stim_rating,reference_rating,responses,credit_var,subject
,1950.0,,1950.0,500.0,stim,single-stim-button,54,142394,0.0-53.0,dietary_decision,True,0,,Unhealthy,1950.0,health_rating,keeblerfudgestripes,-1.0,0.0,,,,,,0
,2615.0,,2615.0,500.0,stim,single-stim-button,55,145522,0.0-54.0,dietary_decision,True,0,,Healthy,2615.0,health_rating,specialKbar,1.0,1.0,,,,,,0
,1234.0,,1234.0,500.0,stim,single-stim-button,56,147271,0.0-55.0,dietary_decision,True,0,,Very_Healthy,1234.0,health_rating,brocollincauliflower,2.0,2.0,,,,,,0
,2408.0,,2408.0,500.0,stim,single-stim-button,57,150188,0.0-56.0,dietary_decision,True,0,,Healthy,2408.0,health_rating,ffraspsorbet,1.0,3.0,,,,,,0
,1974.0,,1974.0,500.0,stim,single-stim-button,58,152671,0.0-57.0,dietary_decision,True,0,,Very_Healthy,1974.0,health_rating,carrots,2.0,4.0,,,,,,0
,2210.0,,2210.0,500.0,stim,single-stim-button,59,155396,0.0-58.0,dietary_decision,True,0,,Neutral,2210.0,health_rating,strussel,0.0,5.0,,,,,,0
,1655.0,,1655.0,500.0,stim,single-stim-button,60,157555,0.0-59.0,dietary_decision,True,0,,Very_Healthy,1655.0,health_rating,reddelicious,2.0,6.0,,,,,,0
,786.0,,786.0,500.0,stim,single-stim-button,61,158846,0.0-60.0,dietary_decision,True,0,,Very_Healthy,786.0,health_rating,whitegrapes,2.0,7.0,,,,,,0
,1970.0,,1970.0,500.0,stim,single-stim-button,62,161326,0.0-61.0,dietary_decision,True,0,,Unhealthy,1970.0,health_rating,Ghiradelli,-1.0,8.0,,,,,,0
,2359.0,,2359.0,500.0,stim,single-stim-button,63,164194,0.0-62.0,dietary_decision,True,0,,Neutral,2359.0,health_rating,cranberries,0.0,9.0,,,,,,0
,1961.0,,1961.0,500.0,stim,single-stim-button,64,166660,0.0-63.0,dietary_decision,True,0,,Very_Unhealthy,1961.0,health_rating,uToberlorone,-2.0,10.0,,,,,,0
,1556.0,,1556.0,500.0,stim,single-stim-button,65,168721,0.0-64.0,dietary_decision,True,0,,Unhealthy,1556.0,health_rating,ChipsAhoy,-1.0,11.0,,,,,,0
,1280.0,,1280.0,500.0,stim,single-stim-button,66,170507,0.0-65.0,dietary_decision,True,0,,Unhealthy,1280.0,health_rating,FamousAmos,-1.0,12.0,,,,,,0
,1881.0,,1881.0,500.0,stim,single-stim-button,67,172899,0.0-66.0,dietary_decision,True,0,,Unhealthy,1881.0,health_rating,cookiencream,-1.0,13.0,,,,,,0
,1685.0,,1685.0,500.0,stim,single-stim-button,68,175092,0.0-67.0,dietary_decision,True,0,,Very_Healthy,1685.0,health_rating,orange,2.0,14.0,,,,,,0
,2169.0,,2169.0,500.0,stim,single-stim-button,69,177764,0.0-68.0,dietary_decision,True,0,,Healthy,2169.0,health_rating,frozenyogart,1.0,15.0,,,,,,0
,2509.0,,2509.0,500.0,stim,single-stim-button,70,180779,0.0-69.0,dietary_decision,True,0,,Very_Healthy,2509.0,health_rating,redgrapes,2.0,16.0,,,,,,0
,1313.0,,1313.0,500.0,stim,single-stim-button,72,187117,0.0-71.0,dietary_decision,True,0,,Very_Healthy,1313.0,health_rating,strawberries,2.0,18.0,,,,,,0
,1984.0,,1984.0,500.0,stim,single-stim-button,73,189602,0.0-72.0,dietary_decision,True,0,,Healthy,1984.0,health_rating,RiceKrispyTreat,1.0,19.0,,,,,,0
,1953.0,,1953.0,500.0,stim,single-stim-button,74,192060,0.0-73.0,dietary_decision,True,0,,Unhealthy,1953.0,health_rating,Reeses,-1.0,20.0,,,,,,0
,1784.0,,1784.0,500.0,stim,single-stim-button,75,194355,0.0-74.0,dietary_decision,True,0,,Unhealthy,1784.0,health_rating,icecreamsandwich,-1.0,21.0,,,,,,0
,1776.0,,1776.0,500.0,stim,single-stim-button,76,196639,0.0-75.0,dietary_decision,True,0,,Neutral,1776.0,health_rating,orangejello,0.0,22.0,,,,,,0
,1835.0,,1835.0,500.0,stim,single-stim-button,77,198990,0.0-76.0,dietary_decision,True,0,,Healthy,1835.0,health_rating,HoHo,1.0,23.0,,,,,,0
,1910.0,,1910.0,500.0,stim,single-stim-button,78,201405,0.0-77.0,dietary_decision,True,0,,Healthy,1910.0,health_rating,mixedyogart,1.0,24.0,,,,,,0
,1224.0,,1224.0,500.0,stim,single-stim-button,79,203144,0.0-78.0,dietary_decision,True,0,,Very_Healthy,1224.0,health_rating,banana,2.0,25.0,,,,,,0
,1838.0,,1838.0,500.0,stim,single-stim-button,80,205496,0.0-79.0,dietary_decision,True,0,,Very_Unhealthy,1838.0,health_rating,Doritosranch,-2.0,26.0,,,,,,0
,1779.0,,1779.0,500.0,stim,single-stim-button,81,207782,0.0-80.0,dietary_decision,True,0,,Neutral,1779.0,health_rating,MrsFields,0.0,27.0,,,,,,0
,2283.0,,2283.0,500.0,stim,single-stim-button,82,210573,0.0-81.0,dietary_decision,True,0,,Very_Unhealthy,2283.0,health_rating,FlamingCheetos,-2.0,28.0,,,,,,0
,1769.0,,1769.0,500.0,stim,single-stim-button,83,212854,0.0-82.0,dietary_decision,True,0,,Healthy,1769.0,health_rating,sbdietbar,1.0,29.0,,,,,,0
,2299.0,,2299.0,500.0,stim,single-stim-button,84,215665,0.0-83.0,dietary_decision,True,0,,Unhealthy,2299.0,health_rating,Lindt,-1.0,30.0,,,,,,0
,1752.0,,1752.0,500.0,stim,single-stim-button,85,217918,0.0-84.0,dietary_decision,True,0,,Healthy,1752.0,health_rating,raisins,1.0,31.0,,,,,,0
,2013.0,,2013.0,500.0,stim,single-stim-button,86,220440,0.0-85.0,dietary_decision,True,0,,Neutral,2013.0,health_rating,keeblerrainbow,0.0,32.0,,,,,,0
,2196.0,,2196.0,500.0,stim,single-stim-button,87,223144,0.0-86.0,dietary_decision,True,0,,Healthy,2196.0,health_rating,ruffles,1.0,33.0,,,,,,0
,2037.0,,2037.0,500.0,stim,single-stim-button,88,225690,0.0-87.0,dietary_decision,True,0,,Healthy,2037.0,health_rating,cellery,1.0,34.0,,,,,,0
,2118.0,,2118.0,500.0,stim,single-stim-button,89,228322,0.0-88.0,dietary_decision,True,0,,Very_Unhealthy,2118.0,health_rating,Oreos,-2.0,35.0,,,,,,0
,1460.0,,1460.0,500.0,stim,single-stim-button,90,230290,0.0-89.0,dietary_decision,True,0,,Neutral,1460.0,health_rating,slimfastV,0.0,36.0,,,,,,0
,1294.0,,1294.0,500.0,stim,single-stim-button,91,232100,0.0-90.0,dietary_decision,True,0,,Very_Healthy,1294.0,health_rating,grannysmith,2.0,37.0,,,,,,0
,1496.0,,1496.0,500.0,stim,single-stim-button,92,234103,0.0-91.0,dietary_decision,True,0,,Unhealthy,1496.0,health_rating,uTwix,-1.0,38.0,,,,,,0
,1380.0,,1380.0,500.0,stim,single-stim-button,93,235990,0.0-92.0,dietary_decision,True,0,,Unhealthy,1380.0,health_rating,laysclassic,-1.0,39.0,,,,,,0
,2455.0,,2455.0,500.0,stim,single-stim-button,94,238956,0.0-93.0,dietary_decision,True,0,,Healthy,2455.0,health_rating,cherryicecream,1.0,40.0,,,,,,0
,2086.0,,2086.0,500.0,stim,single-stim-button,95,241543,0.0-94.0,dietary_decision,True,0,,Healthy,2086.0,health_rating,wwmuffin,1.0,41.0,,,,,,0
,1570.0,,1570.0,500.0,stim,single-stim-button,96,243622,0.0-95.0,dietary_decision,True,0,,Neutral,1570.0,health_rating,butterfinger,0.0,42.0,,,,,,0
,1085.0,,1085.0,500.0,stim,single-stim-button,97,245214,0.0-96.0,dietary_decision,True,0,,Neutral,1085.0,health_rating,slimfastC,0.0,43.0,,,,,,0
,2179.0,,2179.0,500.0,stim,single-stim-button,98,247908,0.0-97.0,dietary_decision,True,0,,Unhealthy,2179.0,health_rating,cookies,-1.0,44.0,,,,,,0
,1895.0,,1895.0,500.0,stim,single-stim-button,99,250311,0.0-98.0,dietary_decision,True,0,,Healthy,1895.0,health_rating,wwbrownie,1.0,45.0,,,,,,0
,1899.0,,1899.0,500.0,stim,single-stim-button,100,252726,0.0-99.0,dietary_decision,True,0,,Very_Unhealthy,1899.0,health_rating,KitKat,-2.0,46.0,,,,,,0
,1868.0,,1868.0,500.0,stim,single-stim-button,101,255101,0.0-100.0,dietary_decision,True,0,,Healthy,1868.0,health_rating,sbcrackers,1.0,47.0,,,,,,0
,1870.0,,1870.0,500.0,stim,single-stim-button,102,257482,0.0-101.0,dietary_decision,True,0,,Healthy,1870.0,health_rating,blueberryyogart,1.0,48.0,,,,,,0
,1417.0,,1417.0,500.0,stim,single-stim-button,103,259412,0.0-102.0,dietary_decision,True,0,,Healthy,1417.0,health_rating,wheatcrisps,1.0,49.0,,,,,,0
,2434.0,,2434.0,500.0,stim,single-stim-button,54,151475,0.0-53.0,dietary_decision,True,0,,Healthy,2434.0,health_rating,whitegrapes,1.0,0.0,,,,,,1
,2344.0,,2344.0,500.0,stim,single-stim-button,55,154334,0.0-54.0,dietary_decision,True,0,,Neutral,2344.0,health_rating,cherryicecream,0.0,1.0,,,,,,1
,2845.0,,2845.0,500.0,stim,single-stim-button,56,157696,0.0-55.0,dietary_decision,True,0,,Neutral,2845.0,health_rating,wheatcrisps,0.0,2.0,,,,,,1
,1305.0,,1305.0,500.0,stim,single-stim-button,57,159506,0.0-56.0,dietary_decision,True,0,,Neutral,1305.0,health_rating,mixedyogart,0.0,3.0,,,,,,1
,1614.0,,1614.0,500.0,stim,single-stim-button,58,161622,0.0-57.0,dietary_decision,True,0,,Neutral,1614.0,health_rating,strussel,0.0,4.0,,,,,,1
,1067.0,,1067.0,500.0,stim,single-stim-button,59,163195,0.0-58.0,dietary_decision,True,0,,Neutral,1067.0,health_rating,FamousAmos,0.0,5.0,,,,,,1
,1435.0,,1435.0,500.0,stim,single-stim-button,60,165136,0.0-59.0,dietary_decision,True,0,,Neutral,1435.0,health_rating,uTwix,0.0,6.0,,,,,,1
,998.0,,998.0,500.0,stim,single-stim-button,61,166639,0.0-60.0,dietary_decision,True,0,,Neutral,998.0,health_rating,slimfastV,0.0,7.0,,,,,,1
,1296.0,,1296.0,500.0,stim,single-stim-button,62,168440,0.0-61.0,dietary_decision,True,0,,Neutral,1296.0,health_rating,carrots,0.0,8.0,,,,,,1
,1228.0,,1228.0,500.0,stim,single-stim-button,63,170170,0.0-62.0,dietary_decision,True,0,,Neutral,1228.0,health_rating,cellery,0.0,9.0,,,,,,1
,1629.0,,1629.0,500.0,stim,single-stim-button,64,172311,0.0-63.0,dietary_decision,True,0,,Healthy,1629.0,health_rating,frozenyogart,1.0,10.0,,,,,,1
,1505.0,,1505.0,500.0,stim,single-stim-button,65,174321,0.0-64.0,dietary_decision,True,0,,Neutral,1505.0,health_rating,wwbrownie,0.0,11.0,,,,,,1
,995.0,,995.0,500.0,stim,single-stim-button,66,175830,0.0-65.0,dietary_decision,True,0,,Neutral,995.0,health_rating,sbcrackers,0.0,12.0,,,,,,1
,1744.0,,1744.0,500.0,stim,single-stim-button,67,178086,0.0-66.0,dietary_decision,True,0,,Unhealthy,1744.0,health_rating,FlamingCheetos,-1.0,13.0,,,,,,1
,1122.0,,1122.0,500.0,stim,single-stim-button,68,179713,0.0-67.0,dietary_decision,True,0,,Unhealthy,1122.0,health_rating,Doritosranch,-1.0,14.0,,,,,,1
,2423.0,,2423.0,500.0,stim,single-stim-button,69,182645,0.0-68.0,dietary_decision,True,0,,Healthy,2423.0,health_rating,specialKbar,1.0,15.0,,,,,,1
,1328.0,,1328.0,500.0,stim,single-stim-button,70,184487,0.0-69.0,dietary_decision,True,0,,Healthy,1328.0,health_rating,cookies,1.0,16.0,,,,,,1
,1496.0,,1496.0,500.0,stim,single-stim-button,71,186496,0.0-70.0,dietary_decision,True,0,,Healthy,1496.0,health_rating,butterfinger,1.0,17.0,,,,,,1
,1958.0,,1958.0,500.0,stim,single-stim-button,72,188962,0.0-71.0,dietary_decision,True,0,,Healthy,1958.0,health_rating,brocollincauliflower,1.0,18.0,,,,,,1
,3153.0,,3153.0,500.0,stim,single-stim-button,73,192620,0.0-72.0,dietary_decision,True,0,,Neutral,3153.0,health_rating,orangejello,0.0,19.0,,,,,,1
,1606.0,,1606.0,500.0,stim,single-stim-button,74,194730,0.0-73.0,dietary_decision,True,0,,Healthy,1606.0,health_rating,keeblerrainbow,1.0,20.0,,,,,,1
,1992.0,,1992.0,500.0,stim,single-stim-button,75,197227,0.0-74.0,dietary_decision,True,0,,Neutral,1992.0,health_rating,Reeses,0.0,21.0,,,,,,1
,1188.0,,1188.0,500.0,stim,single-stim-button,76,198928,0.0-75.0,dietary_decision,True,0,,Neutral,1188.0,health_rating,cranberries,0.0,22.0,,,,,,1
,1032.0,,1032.0,500.0,stim,single-stim-button,77,200469,0.0-76.0,dietary_decision,True,0,,Neutral,1032.0,health_rating,reddelicious,0.0,23.0,,,,,,1
,1600.0,,1600.0,500.0,stim,single-stim-button,78,202582,0.0-77.0,dietary_decision,True,0,,Healthy,1600.0,health_rating,ChipsAhoy,1.0,24.0,,,,,,1
,1422.0,,1422.0,500.0,stim,single-stim-button,79,204513,0.0-78.0,dietary_decision,True,0,,Healthy,1422.0,health_rating,KitKat,1.0,25.0,,,,,,1
,2944.0,,2944.0,500.0,stim,single-stim-button,80,207961,0.0-79.0,dietary_decision,True,0,,Healthy,2944.0,health_rating,blueberryyogart,1.0,26.0,,,,,,1
,1451.0,,1451.0,500.0,stim,single-stim-button,82,214436,0.0-81.0,dietary_decision,True,0,,Neutral,1451.0,health_rating,HoHo,0.0,28.0,,,,,,1
,2052.0,,2052.0,500.0,stim,single-stim-button,83,217002,0.0-82.0,dietary_decision,True,0,,Unhealthy,2052.0,health_rating,Ghiradelli,-1.0,29.0,,,,,,1
,1479.0,,1479.0,500.0,stim,single-stim-button,84,218985,0.0-83.0,dietary_decision,True,0,,Unhealthy,1479.0,health_rating,ruffles,-1.0,30.0,,,,,,1
,1411.0,,1411.0,500.0,stim,single-stim-button,85,220912,0.0-84.0,dietary_decision,True,0,,Unhealthy,1411.0,health_rating,ffraspsorbet,-1.0,31.0,,,,,,1
,1528.0,,1528.0,500.0,stim,single-stim-button,86,222944,0.0-85.0,dietary_decision,True,0,,Neutral,1528.0,health_rating,wwmuffin,0.0,32.0,,,,,,1
,1404.0,,1404.0,500.0,stim,single-stim-button,87,224861,0.0-86.0,dietary_decision,True,0,,Neutral,1404.0,health_rating,icecreamsandwich,0.0,33.0,,,,,,1
,1314.0,,1314.0,500.0,stim,single-stim-button,89,231191,0.0-88.0,dietary_decision,True,0,,Healthy,1314.0,health_rating,keeblerfudgestripes,1.0,35.0,,,,,,1
,1374.0,,1374.0,500.0,stim,single-stim-button,90,233078,0.0-89.0,dietary_decision,True,0,,Healthy,1374.0,health_rating,100Grand,1.0,36.0,,,,,,1
,928.0,,928.0,500.0,stim,single-stim-button,91,234518,0.0-90.0,dietary_decision,True,0,,Healthy,928.0,health_rating,RiceKrispyTreat,1.0,37.0,,,,,,1
,1843.0,,1843.0,500.0,stim,single-stim-button,92,236870,0.0-91.0,dietary_decision,True,0,,Unhealthy,1843.0,health_rating,laysclassic,-1.0,38.0,,,,,,1
,1271.0,,1271.0,500.0,stim,single-stim-button,93,238646,0.0-92.0,dietary_decision,True,0,,Healthy,1271.0,health_rating,cookiencream,1.0,39.0,,,,,,1
,2182.0,,2182.0,500.0,stim,single-stim-button,94,241341,0.0-93.0,dietary_decision,True,0,,Healthy,2182.0,health_rating,redgrapes,1.0,40.0,,,,,,1
,3075.0,,3075.0,500.0,stim,single-stim-button,95,244920,0.0-94.0,dietary_decision,True,0,,Unhealthy,3075.0,health_rating,strawberries,-1.0,41.0,,,,,,1
,1389.0,,1389.0,500.0,stim,single-stim-button,96,246821,0.0-95.0,dietary_decision,True,0,,Unhealthy,1389.0,health_rating,orange,-1.0,42.0,,,,,,1
,1219.0,,1219.0,500.0,stim,single-stim-button,97,248542,0.0-96.0,dietary_decision,True,0,,Healthy,1219.0,health_rating,banana,1.0,43.0,,,,,,1
,1189.0,,1189.0,500.0,stim,single-stim-button,98,250238,0.0-97.0,dietary_decision,True,0,,Healthy,1189.0,health_rating,MrsFields,1.0,44.0,,,,,,1
,836.0,,836.0,500.0,stim,single-stim-button,99,251585,0.0-98.0,dietary_decision,True,0,,Healthy,836.0,health_rating,uToberlorone,1.0,45.0,,,,,,1
,910.0,,910.0,500.0,stim,single-stim-button,100,253003,0.0-99.0,dietary_decision,True,0,,Healthy,910.0,health_rating,slimfastC,1.0,46.0,,,,,,1
,745.0,,745.0,500.0,stim,single-stim-button,101,254252,0.0-100.0,dietary_decision,True,0,,Healthy,745.0,health_rating,sbdietbar,1.0,47.0,,,,,,1
,602.0,,602.0,500.0,stim,single-stim-button,102,255360,0.0-101.0,dietary_decision,True,0,,Healthy,602.0,health_rating,raisins,1.0,48.0,,,,,,1
,506.0,,506.0,500.0,stim,single-stim-button,103,256378,0.0-102.0,dietary_decision,True,0,,Healthy,506.0,health_rating,Oreos,1.0,49.0,,,,,,1
,2612.0,,2612.0,500.0,stim,single-stim-button,6,36042,0.0-5.0,dietary_decision,True,0,,Neutral,2612.0,health_rating,uToberlorone,0.0,3.0,,,,,,2
,3454.0,,3454.0,500.0,stim,single-stim-button,7,40001,0.0-6.0,dietary_decision,True,0,,Neutral,3454.0,health_rating,sbcrackers,0.0,4.0,,,,,,2
,2219.0,,2219.0,500.0,stim,single-stim-button,8,42728,0.0-7.0,dietary_decision,True,0,,Very_Healthy,2219.0,health_rating,redgrapes,2.0,5.0,,,,,,2
,2475.0,,2475.0,500.0,stim,single-stim-button,9,45711,0.0-8.0,dietary_decision,True,0,,Very_Unhealthy,2475.0,health_rating,Reeses,-2.0,6.0,,,,,,2
,1960.0,,1960.0,500.0,stim,single-stim-button,10,48183,0.0-9.0,dietary_decision,True,0,,Very_Unhealthy,1960.0,health_rating,icecreamsandwich,-2.0,7.0,,,,,,2
,1404.0,,1404.0,500.0,stim,single-stim-button,11,50101,0.0-10.0,dietary_decision,True,0,,Very_Unhealthy,1404.0,health_rating,ChipsAhoy,-2.0,8.0,,,,,,2
,2104.0,,2104.0,500.0,stim,single-stim-button,12,52717,0.0-11.0,dietary_decision,True,0,,Unhealthy,2104.0,health_rating,Doritosranch,-1.0,9.0,,,,,,2
,2910.0,,2910.0,500.0,stim,single-stim-button,13,56142,0.0-12.0,dietary_decision,True,0,,Neutral,2910.0,health_rating,wheatcrisps,0.0,10.0,,,,,,2
,2736.0,,2736.0,500.0,stim,single-stim-button,14,59392,0.0-13.0,dietary_decision,True,0,,Neutral,2736.0,health_rating,wwbrownie,0.0,11.0,,,,,,2
,2164.0,,2164.0,500.0,stim,single-stim-button,15,62068,0.0-14.0,dietary_decision,True,0,,Unhealthy,2164.0,health_rating,butterfinger,-1.0,12.0,,,,,,2
,3828.0,,3828.0,500.0,stim,single-stim-button,16,66402,0.0-15.0,dietary_decision,True,0,,Unhealthy,3828.0,health_rating,cookies,-1.0,13.0,,,,,,2
,2069.0,,2069.0,500.0,stim,single-stim-button,17,68979,0.0-16.0,dietary_decision,True,0,,Unhealthy,2069.0,health_rating,orangejello,-1.0,14.0,,,,,,2
,2398.0,,2398.0,500.0,stim,single-stim-button,18,71892,0.0-17.0,dietary_decision,True,0,,Very_Healthy,2398.0,health_rating,orange,2.0,15.0,,,,,,2
,3752.0,,3752.0,500.0,stim,single-stim-button,19,76154,0.0-18.0,dietary_decision,True,0,,Neutral,3752.0,health_rating,slimfastV,0.0,16.0,,,,,,2
,1990.0,,1990.0,500.0,stim,single-stim-button,21,83166,0.0-20.0,dietary_decision,True,0,,Very_Healthy,1990.0,health_rating,banana,2.0,18.0,,,,,,2
,1865.0,,1865.0,500.0,stim,single-stim-button,22,85541,0.0-21.0,dietary_decision,True,0,,Very_Healthy,1865.0,health_rating,specialKbar,2.0,19.0,,,,,,2
,3439.0,,3439.0,500.0,stim,single-stim-button,23,89493,0.0-22.0,dietary_decision,True,0,,Unhealthy,3439.0,health_rating,keeblerfudgestripes,-1.0,20.0,,,,,,2
,1746.0,,1746.0,500.0,stim,single-stim-button,24,91749,0.0-23.0,dietary_decision,True,0,,Unhealthy,1746.0,health_rating,MrsFields,-1.0,21.0,,,,,,2
,3237.0,,3237.0,500.0,stim,single-stim-button,25,95491,0.0-24.0,dietary_decision,True,0,,Unhealthy,3237.0,health_rating,cookiencream,-1.0,22.0,,,,,,2
,1111.0,,1111.0,500.0,stim,single-stim-button,26,97115,0.0-25.0,dietary_decision,True,0,,Unhealthy,1111.0,health_rating,uTwix,-1.0,23.0,,,,,,2
,1011.0,,1011.0,500.0,stim,single-stim-button,27,98638,0.0-26.0,dietary_decision,True,0,,Unhealthy,1011.0,health_rating,FlamingCheetos,-1.0,24.0,,,,,,2
,1165.0,,1165.0,500.0,stim,single-stim-button,28,100313,0.0-27.0,dietary_decision,True,0,,Unhealthy,1165.0,health_rating,strussel,-1.0,25.0,,,,,,2
,1388.0,,1388.0,500.0,stim,single-stim-button,31,111245,0.0-30.0,dietary_decision,True,0,,Unhealthy,1388.0,health_rating,wwmuffin,-1.0,28.0,,,,,,2
,1909.0,,1909.0,500.0,stim,single-stim-button,32,113666,0.0-31.0,dietary_decision,True,0,,Very_Unhealthy,1909.0,health_rating,blueberryyogart,-2.0,29.0,,,,,,2
,1981.0,,1981.0,500.0,stim,single-stim-button,33,116161,0.0-32.0,dietary_decision,True,0,,Very_Healthy,1981.0,health_rating,frozenyogart,2.0,30.0,,,,,,2
,1151.0,,1151.0,500.0,stim,single-stim-button,34,117823,0.0-33.0,dietary_decision,True,0,,Very_Healthy,1151.0,health_rating,grannysmith,2.0,31.0,,,,,,2
,1993.0,,1993.0,500.0,stim,single-stim-button,35,120322,0.0-34.0,dietary_decision,True,0,,Unhealthy,1993.0,health_rating,slimfastC,-1.0,32.0,,,,,,2
,2183.0,,2183.0,500.0,stim,single-stim-button,36,123018,0.0-35.0,dietary_decision,True,0,,Very_Healthy,2183.0,health_rating,cranberries,2.0,33.0,,,,,,2
,2875.0,,2875.0,500.0,stim,single-stim-button,37,126402,0.0-36.0,dietary_decision,True,0,,Neutral,2875.0,health_rating,ruffles,0.0,34.0,,,,,,2
,2553.0,,2553.0,500.0,stim,single-stim-button,38,129468,0.0-37.0,dietary_decision,True,0,,Healthy,2553.0,health_rating,RiceKrispyTreat,1.0,35.0,,,,,,2
,2062.0,,2062.0,500.0,stim,single-stim-button,39,132042,0.0-38.0,dietary_decision,True,0,,Very_Healthy,2062.0,health_rating,whitegrapes,2.0,36.0,,,,,,2
,1031.0,,1031.0,500.0,stim,single-stim-button,40,133584,0.0-39.0,dietary_decision,True,0,,Very_Healthy,1031.0,health_rating,reddelicious,2.0,37.0,,,,,,2
,2849.0,,2849.0,500.0,stim,single-stim-button,41,136940,0.0-40.0,dietary_decision,True,0,,Unhealthy,2849.0,health_rating,FamousAmos,-1.0,38.0,,,,,,2
,1804.0,,1804.0,500.0,stim,single-stim-button,42,139257,0.0-41.0,dietary_decision,True,0,,Very_Unhealthy,1804.0,health_rating,Oreos,-2.0,39.0,,,,,,2
,2203.0,,2203.0,500.0,stim,single-stim-button,43,141969,0.0-42.0,dietary_decision,True,0,,Very_Healthy,2203.0,health_rating,strawberries,2.0,40.0,,,,,,2
,1978.0,,1978.0,500.0,stim,single-stim-button,44,144459,0.0-43.0,dietary_decision,True,0,,Unhealthy,1978.0,health_rating,laysclassic,-1.0,41.0,,,,,,2
,1982.0,,1982.0,500.0,stim,single-stim-button,45,146953,0.0-44.0,dietary_decision,True,0,,Unhealthy,1982.0,health_rating,ffraspsorbet,-1.0,42.0,,,,,,2
,3433.0,,3433.0,500.0,stim,single-stim-button,46,150893,0.0-45.0,dietary_decision,True,0,,Healthy,3433.0,health_rating,mixedyogart,1.0,43.0,,,,,,2
,2248.0,,2248.0,500.0,stim,single-stim-button,48,158174,0.0-47.0,dietary_decision,True,0,,Very_Healthy,2248.0,health_rating,carrots,2.0,45.0,,,,,,2
,1843.0,,1843.0,500.0,stim,single-stim-button,49,160527,0.0-48.0,dietary_decision,True,0,,Unhealthy,1843.0,health_rating,KitKat,-1.0,46.0,,,,,,2
,1374.0,,1374.0,500.0,stim,single-stim-button,50,162412,0.0-49.0,dietary_decision,True,0,,Very_Unhealthy,1374.0,health_rating,keeblerrainbow,-2.0,47.0,,,,,,2
,2911.0,,2911.0,500.0,stim,single-stim-button,51,165828,0.0-50.0,dietary_decision,True,0,,Neutral,2911.0,health_rating,Lindt,0.0,48.0,,,,,,2
,2172.0,,2172.0,500.0,stim,single-stim-button,52,168510,0.0-51.0,dietary_decision,True,0,,Very_Unhealthy,2172.0,health_rating,cherryicecream,-2.0,49.0,,,,,,2
,2144.0,,2144.0,500.0,stim,single-stim-button,4,26832,0.0-3.0,dietary_decision,True,0,,Neutral,2144.0,health_rating,KitKat,0.0,1.0,,,,,,3
,1988.0,,1988.0,500.0,stim,single-stim-button,5,29323,0.0-4.0,dietary_decision,True,0,,Neutral,1988.0,health_rating,slimfastC,0.0,2.0,,,,,,3
,1988.0,,1988.0,500.0,stim,single-stim-button,6,31821,0.0-5.0,dietary_decision,True,0,,Neutral,1988.0,health_rating,slimfastV,0.0,3.0,,,,,,3
,2280.0,,2280.0,500.0,stim,single-stim-button,7,34610,0.0-6.0,dietary_decision,True,0,,Healthy,2280.0,health_rating,wheatcrisps,1.0,4.0,,,,,,3
,3048.0,,3048.0,500.0,stim,single-stim-button,8,38169,0.0-7.0,dietary_decision,True,0,,Healthy,3048.0,health_rating,cellery,1.0,5.0,,,,,,3
,2484.0,,2484.0,500.0,stim,single-stim-button,10,45671,0.0-9.0,dietary_decision,True,0,,Healthy,2484.0,health_rating,FamousAmos,1.0,7.0,,,,,,3
,2251.0,,2251.0,500.0,stim,single-stim-button,11,48431,0.0-10.0,dietary_decision,True,0,,Very_Healthy,2251.0,health_rating,redgrapes,2.0,8.0,,,,,,3
,3793.0,,3793.0,500.0,stim,single-stim-button,12,52730,0.0-11.0,dietary_decision,True,0,,Healthy,3793.0,health_rating,carrots,1.0,9.0,,,,,,3
,2095.0,,2095.0,500.0,stim,single-stim-button,14,59838,0.0-13.0,dietary_decision,True,0,,Neutral,2095.0,health_rating,cookiencream,0.0,11.0,,,,,,3
,1486.0,,1486.0,500.0,stim,single-stim-button,15,61829,0.0-14.0,dietary_decision,True,0,,Neutral,1486.0,health_rating,Lindt,0.0,12.0,,,,,,3
,1426.0,,1426.0,500.0,stim,single-stim-button,16,63757,0.0-15.0,dietary_decision,True,0,,Healthy,1426.0,health_rating,strawberries,1.0,13.0,,,,,,3
,1959.0,,1959.0,500.0,stim,single-stim-button,17,66228,0.0-16.0,dietary_decision,True,0,,Neutral,1959.0,health_rating,sbcrackers,0.0,14.0,,,,,,3
,3172.0,,3172.0,500.0,stim,single-stim-button,18,69902,0.0-17.0,dietary_decision,True,0,,Very_Healthy,3172.0,health_rating,banana,2.0,15.0,,,,,,3
,2282.0,,2282.0,500.0,stim,single-stim-button,19,72696,0.0-18.0,dietary_decision,True,0,,Neutral,2282.0,health_rating,icecreamsandwich,0.0,16.0,,,,,,3
,2402.0,,2402.0,500.0,stim,single-stim-button,20,75610,0.0-19.0,dietary_decision,True,0,,Very_Healthy,2402.0,health_rating,orange,2.0,17.0,,,,,,3
,2270.0,,2270.0,500.0,stim,single-stim-button,22,82900,0.0-21.0,dietary_decision,True,0,,Unhealthy,2270.0,health_rating,Reeses,-1.0,19.0,,,,,,3
,2472.0,,2472.0,500.0,stim,single-stim-button,23,85875,0.0-22.0,dietary_decision,True,0,,Neutral,2472.0,health_rating,ffraspsorbet,0.0,20.0,,,,,,3
,1246.0,,1246.0,500.0,stim,single-stim-button,24,87622,0.0-23.0,dietary_decision,True,0,,Very_Healthy,1246.0,health_rating,reddelicious,2.0,21.0,,,,,,3
,1684.0,,1684.0,500.0,stim,single-stim-button,25,89809,0.0-24.0,dietary_decision,True,0,,Unhealthy,1684.0,health_rating,laysclassic,-1.0,22.0,,,,,,3
,2432.0,,2432.0,500.0,stim,single-stim-button,26,92744,0.0-25.0,dietary_decision,True,0,,Neutral,2432.0,health_rating,strussel,0.0,23.0,,,,,,3
,1705.0,,1705.0,500.0,stim,single-stim-button,28,99464,0.0-27.0,dietary_decision,True,0,,Unhealthy,1705.0,health_rating,Oreos,-1.0,25.0,,,,,,3
,1267.0,,1267.0,500.0,stim,single-stim-button,29,101245,0.0-28.0,dietary_decision,True,0,,Very_Healthy,1267.0,health_rating,grannysmith,2.0,26.0,,,,,,3
,2678.0,,2678.0,500.0,stim,single-stim-button,30,104426,0.0-29.0,dietary_decision,True,0,,Unhealthy,2678.0,health_rating,HoHo,-1.0,27.0,,,,,,3
,2252.0,,2252.0,500.0,stim,single-stim-button,31,107190,0.0-30.0,dietary_decision,True,0,,Healthy,2252.0,health_rating,raisins,1.0,28.0,,,,,,3
,2608.0,,2608.0,500.0,stim,single-stim-button,32,110308,0.0-31.0,dietary_decision,True,0,,Neutral,2608.0,health_rating,sbdietbar,0.0,29.0,,,,,,3
,3470.0,,3470.0,500.0,stim,single-stim-button,33,114292,0.0-32.0,dietary_decision,True,0,,Unhealthy,3470.0,health_rating,frozenyogart,-1.0,30.0,,,,,,3
,2989.0,,2989.0,500.0,stim,single-stim-button,34,117782,0.0-33.0,dietary_decision,True,0,,Unhealthy,2989.0,health_rating,ChipsAhoy,-1.0,31.0,,,,,,3
,3863.0,,3863.0,500.0,stim,single-stim-button,35,122145,0.0-34.0,dietary_decision,True,0,,Unhealthy,3863.0,health_rating,keeblerfudgestripes,-1.0,32.0,,,,,,3
,1284.0,,1284.0,500.0,stim,single-stim-button,37,128471,0.0-36.0,dietary_decision,True,0,,Healthy,1284.0,health_rating,whitegrapes,1.0,34.0,,,,,,3
,3403.0,,3403.0,500.0,stim,single-stim-button,38,132383,0.0-37.0,dietary_decision,True,0,,Neutral,3403.0,health_rating,keeblerrainbow,0.0,35.0,,,,,,3
,3427.0,,3427.0,500.0,stim,single-stim-button,39,136326,0.0-38.0,dietary_decision,True,0,,Unhealthy,3427.0,health_rating,Doritosranch,-1.0,36.0,,,,,,3
,3790.0,,3790.0,500.0,stim,single-stim-button,40,140618,0.0-39.0,dietary_decision,True,0,,Unhealthy,3790.0,health_rating,MrsFields,-1.0,37.0,,,,,,3
,2807.0,,2807.0,500.0,stim,single-stim-button,41,143940,0.0-40.0,dietary_decision,True,0,,Neutral,2807.0,health_rating,wwmuffin,0.0,38.0,,,,,,3
,2378.0,,2378.0,500.0,stim,single-stim-button,42,146826,0.0-41.0,dietary_decision,True,0,,Neutral,2378.0,health_rating,ruffles,0.0,39.0,,,,,,3
,2463.0,,2463.0,500.0,stim,single-stim-button,43,149794,0.0-42.0,dietary_decision,True,0,,Unhealthy,2463.0,health_rating,uTwix,-1.0,40.0,,,,,,3
,3244.0,,3244.0,500.0,stim,single-stim-button,45,158049,0.0-44.0,dietary_decision,True,0,,Unhealthy,3244.0,health_rating,uToberlorone,-1.0,42.0,,,,,,3
,2305.0,,2305.0,500.0,stim,single-stim-button,46,160870,0.0-45.0,dietary_decision,True,0,,Neutral,2305.0,health_rating,wwbrownie,0.0,43.0,,,,,,3
,3224.0,,3224.0,500.0,stim,single-stim-button,48,169103,0.0-47.0,dietary_decision,True,0,,Very_Unhealthy,3224.0,health_rating,FlamingCheetos,-2.0,45.0,,,,,,3
,3755.0,,3755.0,500.0,stim,single-stim-button,49,173361,0.0-48.0,dietary_decision,True,0,,Neutral,3755.0,health_rating,specialKbar,0.0,46.0,,,,,,3
,3344.0,,3344.0,500.0,stim,single-stim-button,51,181721,0.0-50.0,dietary_decision,True,0,,Unhealthy,3344.0,health_rating,100Grand,-1.0,48.0,,,,,,3
,3250.0,,3250.0,500.0,stim,single-stim-button,52,185481,0.0-51.0,dietary_decision,True,0,,Very_Unhealthy,3250.0,health_rating,orangejello,-2.0,49.0,,,,,,3
,2005.0,,2005.0,500.0,stim,single-stim-button,4,93781,0.0-3.0,dietary_decision,True,0,,Neutral,2005.0,health_rating,icecreamsandwich,0.0,1.0,,,,,,4
,985.0,,985.0,500.0,stim,single-stim-button,5,95281,0.0-4.0,dietary_decision,True,0,,Healthy,985.0,health_rating,whitegrapes,1.0,2.0,,,,,,4
,1870.0,,1870.0,500.0,stim,single-stim-button,6,97660,0.0-5.0,dietary_decision,True,0,,Unhealthy,1870.0,health_rating,ChipsAhoy,-1.0,3.0,,,,,,4
,2450.0,,2450.0,500.0,stim,single-stim-button,7,100619,0.0-6.0,dietary_decision,True,0,,Healthy,2450.0,health_rating,reddelicious,1.0,4.0,,,,,,4
,2043.0,,2043.0,500.0,stim,single-stim-button,8,103173,0.0-7.0,dietary_decision,True,0,,Unhealthy,2043.0,health_rating,Doritosranch,-1.0,5.0,,,,,,4
,1392.0,,1392.0,500.0,stim,single-stim-button,9,105080,0.0-8.0,dietary_decision,True,0,,Neutral,1392.0,health_rating,raisins,0.0,6.0,,,,,,4
,1329.0,,1329.0,500.0,stim,single-stim-button,10,106910,0.0-9.0,dietary_decision,True,0,,Unhealthy,1329.0,health_rating,Oreos,-1.0,7.0,,,,,,4
,989.0,,989.0,500.0,stim,single-stim-button,11,108401,0.0-10.0,dietary_decision,True,0,,Unhealthy,989.0,health_rating,cookiencream,-1.0,8.0,,,,,,4
,969.0,,969.0,500.0,stim,single-stim-button,12,109883,0.0-11.0,dietary_decision,True,0,,Unhealthy,969.0,health_rating,wwbrownie,-1.0,9.0,,,,,,4
,1813.0,,1813.0,500.0,stim,single-stim-button,13,112209,0.0-12.0,dietary_decision,True,0,,Healthy,1813.0,health_rating,strawberries,1.0,10.0,,,,,,4
,1047.0,,1047.0,500.0,stim,single-stim-button,14,113768,0.0-13.0,dietary_decision,True,0,,Unhealthy,1047.0,health_rating,strussel,-1.0,11.0,,,,,,4
,1470.0,,1470.0,500.0,stim,single-stim-button,15,115753,0.0-14.0,dietary_decision,True,0,,Neutral,1470.0,health_rating,MrsFields,0.0,12.0,,,,,,4
,1064.0,,1064.0,500.0,stim,single-stim-button,16,117328,0.0-15.0,dietary_decision,True,0,,Unhealthy,1064.0,health_rating,laysclassic,-1.0,13.0,,,,,,4
,1161.0,,1161.0,500.0,stim,single-stim-button,17,118998,0.0-16.0,dietary_decision,True,0,,Unhealthy,1161.0,health_rating,redgrapes,-1.0,14.0,,,,,,4
,2094.0,,2094.0,500.0,stim,single-stim-button,18,121606,0.0-17.0,dietary_decision,True,0,,Unhealthy,2094.0,health_rating,HoHo,-1.0,15.0,,,,,,4
,1170.0,,1170.0,500.0,stim,single-stim-button,19,123283,0.0-18.0,dietary_decision,True,0,,Unhealthy,1170.0,health_rating,frozenyogart,-1.0,16.0,,,,,,4
,1622.0,,1622.0,500.0,stim,single-stim-button,20,125421,0.0-19.0,dietary_decision,True,0,,Unhealthy,1622.0,health_rating,orangejello,-1.0,17.0,,,,,,4
,2296.0,,2296.0,500.0,stim,single-stim-button,21,128231,0.0-20.0,dietary_decision,True,0,,Unhealthy,2296.0,health_rating,KitKat,-1.0,18.0,,,,,,4
,847.0,,847.0,500.0,stim,single-stim-button,22,129583,0.0-21.0,dietary_decision,True,0,,Unhealthy,847.0,health_rating,sbcrackers,-1.0,19.0,,,,,,4
,1261.0,,1261.0,500.0,stim,single-stim-button,23,131358,0.0-22.0,dietary_decision,True,0,,Neutral,1261.0,health_rating,Lindt,0.0,20.0,,,,,,4
,593.0,,593.0,500.0,stim,single-stim-button,24,132457,0.0-23.0,dietary_decision,True,0,,Neutral,593.0,health_rating,butterfinger,0.0,21.0,,,,,,4
,565.0,,565.0,500.0,stim,single-stim-button,25,133535,0.0-24.0,dietary_decision,True,0,,Neutral,565.0,health_rating,blueberryyogart,0.0,22.0,,,,,,4
,583.0,,583.0,500.0,stim,single-stim-button,26,134631,0.0-25.0,dietary_decision,True,0,,Neutral,583.0,health_rating,carrots,0.0,23.0,,,,,,4
,586.0,,586.0,500.0,stim,single-stim-button,27,135720,0.0-26.0,dietary_decision,True,0,,Neutral,586.0,health_rating,orange,0.0,24.0,,,,,,4
,486.0,,486.0,500.0,stim,single-stim-button,28,136718,0.0-27.0,dietary_decision,True,0,,Neutral,486.0,health_rating,cherryicecream,0.0,25.0,,,,,,4
,314.0,,314.0,500.0,stim,single-stim-button,29,137544,0.0-28.0,dietary_decision,True,0,,Neutral,314.0,health_rating,keeblerrainbow,0.0,26.0,,,,,,4
,551.0,,551.0,500.0,stim,single-stim-button,30,138597,0.0-29.0,dietary_decision,True,0,,Neutral,551.0,health_rating,cookies,0.0,27.0,,,,,,4
,390.0,,390.0,500.0,stim,single-stim-button,31,139489,0.0-30.0,dietary_decision,True,0,,Neutral,390.0,health_rating,cranberries,0.0,28.0,,,,,,4
,335.0,,335.0,500.0,stim,single-stim-button,32,140325,0.0-31.0,dietary_decision,True,0,,Neutral,335.0,health_rating,ruffles,0.0,29.0,,,,,,4
,440.0,,440.0,500.0,stim,single-stim-button,33,141275,0.0-32.0,dietary_decision,True,0,,Neutral,440.0,health_rating,banana,0.0,30.0,,,,,,4
,365.0,,365.0,500.0,stim,single-stim-button,34,142150,0.0-33.0,dietary_decision,True,0,,Neutral,365.0,health_rating,sbdietbar,0.0,31.0,,,,,,4
,391.0,,391.0,500.0,stim,single-stim-button,35,143054,0.0-34.0,dietary_decision,True,0,,Neutral,391.0,health_rating,slimfastC,0.0,32.0,,,,,,4
,770.0,,770.0,500.0,stim,single-stim-button,36,144338,0.0-35.0,dietary_decision,True,0,,Healthy,770.0,health_rating,keeblerfudgestripes,1.0,33.0,,,,,,4
,822.0,,822.0,500.0,stim,single-stim-button,37,145662,0.0-36.0,dietary_decision,True,0,,Neutral,822.0,health_rating,uToberlorone,0.0,34.0,,,,,,4
,1783.0,,1783.0,500.0,stim,single-stim-button,38,147949,0.0-37.0,dietary_decision,True,0,,Unhealthy,1783.0,health_rating,cellery,-1.0,35.0,,,,,,4
,1079.0,,1079.0,500.0,stim,single-stim-button,39,149541,0.0-38.0,dietary_decision,True,0,,Unhealthy,1079.0,health_rating,wheatcrisps,-1.0,36.0,,,,,,4
,1406.0,,1406.0,500.0,stim,single-stim-button,40,151460,0.0-39.0,dietary_decision,True,0,,Neutral,1406.0,health_rating,FamousAmos,0.0,37.0,,,,,,4
,1091.0,,1091.0,500.0,stim,single-stim-button,41,153058,0.0-40.0,dietary_decision,True,0,,Healthy,1091.0,health_rating,mixedyogart,1.0,38.0,,,,,,4
,936.0,,936.0,500.0,stim,single-stim-button,42,154509,0.0-41.0,dietary_decision,True,0,,Healthy,936.0,health_rating,100Grand,1.0,39.0,,,,,,4
,1484.0,,1484.0,500.0,stim,single-stim-button,43,156499,0.0-42.0,dietary_decision,True,0,,Neutral,1484.0,health_rating,slimfastV,0.0,40.0,,,,,,4
,878.0,,878.0,500.0,stim,single-stim-button,44,157888,0.0-43.0,dietary_decision,True,0,,Neutral,878.0,health_rating,Reeses,0.0,41.0,,,,,,4
,1963.0,,1963.0,500.0,stim,single-stim-button,45,160360,0.0-44.0,dietary_decision,True,0,,Neutral,1963.0,health_rating,uTwix,0.0,42.0,,,,,,4
,611.0,,611.0,500.0,stim,single-stim-button,46,161479,0.0-45.0,dietary_decision,True,0,,Neutral,611.0,health_rating,grannysmith,0.0,43.0,,,,,,4
,1562.0,,1562.0,500.0,stim,single-stim-button,47,163551,0.0-46.0,dietary_decision,True,0,,Neutral,1562.0,health_rating,wwmuffin,0.0,44.0,,,,,,4
,732.0,,732.0,500.0,stim,single-stim-button,48,164797,0.0-47.0,dietary_decision,True,0,,Neutral,732.0,health_rating,ffraspsorbet,0.0,45.0,,,,,,4
,709.0,,709.0,500.0,stim,single-stim-button,49,166020,0.0-48.0,dietary_decision,True,0,,Neutral,709.0,health_rating,FlamingCheetos,0.0,46.0,,,,,,4
,628.0,,628.0,500.0,stim,single-stim-button,50,167160,0.0-49.0,dietary_decision,True,0,,Neutral,628.0,health_rating,RiceKrispyTreat,0.0,47.0,,,,,,4
,709.0,,709.0,500.0,stim,single-stim-button,51,168380,0.0-50.0,dietary_decision,True,0,,Neutral,709.0,health_rating,specialKbar,0.0,48.0,,,,,,4
,2096.0,,2096.0,500.0,stim,single-stim-button,52,170989,0.0-51.0,dietary_decision,True,0,,Neutral,2096.0,health_rating,brocollincauliflower,0.0,49.0,,,,,,4
,2539.0,,2539.0,500.0,stim,single-stim-button,4,35588,0.0-3.0,dietary_decision,True,0,,Very_Unhealthy,2539.0,health_rating,uTwix,-2.0,1.0,,,,,,5
,1642.0,,1642.0,500.0,stim,single-stim-button,5,37743,0.0-4.0,dietary_decision,True,0,,Unhealthy,1642.0,health_rating,butterfinger,-1.0,2.0,,,,,,5
,1448.0,,1448.0,500.0,stim,single-stim-button,6,39705,0.0-5.0,dietary_decision,True,0,,Unhealthy,1448.0,health_rating,uToberlorone,-1.0,3.0,,,,,,5
,2437.0,,2437.0,500.0,stim,single-stim-button,7,42656,0.0-6.0,dietary_decision,True,0,,Healthy,2437.0,health_rating,Lindt,1.0,4.0,,,,,,5
,1228.0,,1228.0,500.0,stim,single-stim-button,8,44396,0.0-7.0,dietary_decision,True,0,,Healthy,1228.0,health_rating,reddelicious,1.0,5.0,,,,,,5
,2885.0,,2885.0,500.0,stim,single-stim-button,9,47784,0.0-8.0,dietary_decision,True,0,,Neutral,2885.0,health_rating,carrots,0.0,6.0,,,,,,5
,1749.0,,1749.0,500.0,stim,single-stim-button,10,50046,0.0-9.0,dietary_decision,True,0,,Healthy,1749.0,health_rating,frozenyogart,1.0,7.0,,,,,,5
,1801.0,,1801.0,500.0,stim,single-stim-button,11,52353,0.0-10.0,dietary_decision,True,0,,Unhealthy,1801.0,health_rating,Oreos,-1.0,8.0,,,,,,5
,2334.0,,2334.0,500.0,stim,single-stim-button,12,55199,0.0-11.0,dietary_decision,True,0,,Unhealthy,2334.0,health_rating,wwbrownie,-1.0,9.0,,,,,,5
,2112.0,,2112.0,500.0,stim,single-stim-button,13,57821,0.0-12.0,dietary_decision,True,0,,Unhealthy,2112.0,health_rating,cherryicecream,-1.0,10.0,,,,,,5
,3313.0,,3313.0,500.0,stim,single-stim-button,14,61641,0.0-13.0,dietary_decision,True,0,,Neutral,3313.0,health_rating,brocollincauliflower,0.0,11.0,,,,,,5
,1073.0,,1073.0,500.0,stim,single-stim-button,15,63227,0.0-14.0,dietary_decision,True,0,,Healthy,1073.0,health_rating,whitegrapes,1.0,12.0,,,,,,5
,2416.0,,2416.0,500.0,stim,single-stim-button,16,66145,0.0-15.0,dietary_decision,True,0,,Healthy,2416.0,health_rating,mixedyogart,1.0,13.0,,,,,,5
,1329.0,,1329.0,500.0,stim,single-stim-button,17,67979,0.0-16.0,dietary_decision,True,0,,Very_Healthy,1329.0,health_rating,grannysmith,2.0,14.0,,,,,,5
,2347.0,,2347.0,500.0,stim,single-stim-button,18,70834,0.0-17.0,dietary_decision,True,0,,Unhealthy,2347.0,health_rating,strussel,-1.0,15.0,,,,,,5
,2060.0,,2060.0,500.0,stim,single-stim-button,19,73408,0.0-18.0,dietary_decision,True,0,,Very_Unhealthy,2060.0,health_rating,icecreamsandwich,-2.0,16.0,,,,,,5
,2712.0,,2712.0,500.0,stim,single-stim-button,20,76633,0.0-19.0,dietary_decision,True,0,,Neutral,2712.0,health_rating,cellery,0.0,17.0,,,,,,5
,3983.0,,3983.0,500.0,stim,single-stim-button,21,81120,0.0-20.0,dietary_decision,True,0,,Neutral,3983.0,health_rating,sbcrackers,0.0,18.0,,,,,,5
,2855.0,,2855.0,500.0,stim,single-stim-button,22,84489,0.0-21.0,dietary_decision,True,0,,Neutral,2855.0,health_rating,slimfastC,0.0,19.0,,,,,,5
,1612.0,,1612.0,500.0,stim,single-stim-button,23,86608,0.0-22.0,dietary_decision,True,0,,Unhealthy,1612.0,health_rating,keeblerrainbow,-1.0,20.0,,,,,,5
,1744.0,,1744.0,500.0,stim,single-stim-button,24,88862,0.0-23.0,dietary_decision,True,0,,Very_Healthy,1744.0,health_rating,strawberries,2.0,21.0,,,,,,5
,2185.0,,2185.0,500.0,stim,single-stim-button,25,91559,0.0-24.0,dietary_decision,True,0,,Very_Unhealthy,2185.0,health_rating,specialKbar,-2.0,22.0,,,,,,5
,1410.0,,1410.0,500.0,stim,single-stim-button,26,93473,0.0-25.0,dietary_decision,True,0,,Very_Unhealthy,1410.0,health_rating,cookies,-2.0,23.0,,,,,,5
,984.0,,984.0,500.0,stim,single-stim-button,27,94962,0.0-26.0,dietary_decision,True,0,,Very_Unhealthy,984.0,health_rating,laysclassic,-2.0,24.0,,,,,,5
,1897.0,,1897.0,500.0,stim,single-stim-button,28,97375,0.0-27.0,dietary_decision,True,0,,Very_Healthy,1897.0,health_rating,cranberries,2.0,25.0,,,,,,5
,3418.0,,3418.0,500.0,stim,single-stim-button,29,101306,0.0-28.0,dietary_decision,True,0,,Neutral,3418.0,health_rating,wwmuffin,0.0,26.0,,,,,,5
,1062.0,,1062.0,500.0,stim,single-stim-button,30,102883,0.0-29.0,dietary_decision,True,0,,Neutral,1062.0,health_rating,Doritosranch,0.0,27.0,,,,,,5
,2074.0,,2074.0,500.0,stim,single-stim-button,31,105466,0.0-30.0,dietary_decision,True,0,,Unhealthy,2074.0,health_rating,cookiencream,-1.0,28.0,,,,,,5
,1967.0,,1967.0,500.0,stim,single-stim-button,32,107948,0.0-31.0,dietary_decision,True,0,,Very_Healthy,1967.0,health_rating,raisins,2.0,29.0,,,,,,5
,2678.0,,2678.0,500.0,stim,single-stim-button,34,115660,0.0-33.0,dietary_decision,True,0,,Neutral,2678.0,health_rating,blueberryyogart,0.0,31.0,,,,,,5
,1721.0,,1721.0,500.0,stim,single-stim-button,35,117885,0.0-34.0,dietary_decision,True,0,,Very_Unhealthy,1721.0,health_rating,slimfastV,-2.0,32.0,,,,,,5
,1807.0,,1807.0,500.0,stim,single-stim-button,36,120193,0.0-35.0,dietary_decision,True,0,,Unhealthy,1807.0,health_rating,KitKat,-1.0,33.0,,,,,,5
,1308.0,,1308.0,500.0,stim,single-stim-button,37,122008,0.0-36.0,dietary_decision,True,0,,Unhealthy,1308.0,health_rating,FamousAmos,-1.0,34.0,,,,,,5
,1698.0,,1698.0,500.0,stim,single-stim-button,38,124214,0.0-37.0,dietary_decision,True,0,,Unhealthy,1698.0,health_rating,100Grand,-1.0,35.0,,,,,,5
,1763.0,,1763.0,500.0,stim,single-stim-button,39,126478,0.0-38.0,dietary_decision,True,0,,Unhealthy,1763.0,health_rating,HoHo,-1.0,36.0,,,,,,5
,1698.0,,1698.0,500.0,stim,single-stim-button,40,128688,0.0-39.0,dietary_decision,True,0,,Very_Healthy,1698.0,health_rating,banana,2.0,37.0,,,,,,5
,1981.0,,1981.0,500.0,stim,single-stim-button,41,131177,0.0-40.0,dietary_decision,True,0,,Unhealthy,1981.0,health_rating,ruffles,-1.0,38.0,,,,,,5
,2054.0,,2054.0,500.0,stim,single-stim-button,42,133736,0.0-41.0,dietary_decision,True,0,,Unhealthy,2054.0,health_rating,RiceKrispyTreat,-1.0,39.0,,,,,,5
,1469.0,,1469.0,500.0,stim,single-stim-button,43,135706,0.0-42.0,dietary_decision,True,0,,Very_Healthy,1469.0,health_rating,orange,2.0,40.0,,,,,,5
,2307.0,,2307.0,500.0,stim,single-stim-button,44,138527,0.0-43.0,dietary_decision,True,0,,Unhealthy,2307.0,health_rating,sbdietbar,-1.0,41.0,,,,,,5
,1858.0,,1858.0,500.0,stim,single-stim-button,45,140898,0.0-44.0,dietary_decision,True,0,,Healthy,1858.0,health_rating,ffraspsorbet,1.0,42.0,,,,,,5
,817.0,,817.0,500.0,stim,single-stim-button,46,142227,0.0-45.0,dietary_decision,True,0,,Healthy,817.0,health_rating,redgrapes,1.0,43.0,,,,,,5
,2965.0,,2965.0,500.0,stim,single-stim-button,47,145704,0.0-46.0,dietary_decision,True,0,,Unhealthy,2965.0,health_rating,keeblerfudgestripes,-1.0,44.0,,,,,,5
,1478.0,,1478.0,500.0,stim,single-stim-button,48,147689,0.0-47.0,dietary_decision,True,0,,Unhealthy,1478.0,health_rating,MrsFields,-1.0,45.0,,,,,,5
,1482.0,,1482.0,500.0,stim,single-stim-button,49,149684,0.0-48.0,dietary_decision,True,0,,Unhealthy,1482.0,health_rating,ChipsAhoy,-1.0,46.0,,,,,,5
,1436.0,,1436.0,500.0,stim,single-stim-button,50,151630,0.0-49.0,dietary_decision,True,0,,Unhealthy,1436.0,health_rating,FlamingCheetos,-1.0,47.0,,,,,,5
,1170.0,,1170.0,500.0,stim,single-stim-button,51,153316,0.0-50.0,dietary_decision,True,0,,Unhealthy,1170.0,health_rating,orangejello,-1.0,48.0,,,,,,5
,2021.0,,2021.0,500.0,stim,single-stim-button,52,155841,0.0-51.0,dietary_decision,True,0,,Neutral,2021.0,health_rating,Ghiradelli,0.0,49.0,,,,,,5
,2377.0,,2377.0,500.0,stim,single-stim-button,54,122803,0.0-53.0,dietary_decision,True,0,,Very_Unhealthy,2377.0,health_rating,wheatcrisps,-2.0,0.0,,,,,,6
,689.0,,689.0,500.0,stim,single-stim-button,55,123993,0.0-54.0,dietary_decision,True,0,,Unhealthy,689.0,health_rating,HoHo,-1.0,1.0,,,,,,6
,1198.0,,1198.0,500.0,stim,single-stim-button,56,125693,0.0-55.0,dietary_decision,True,0,,Neutral,1198.0,health_rating,whitegrapes,0.0,2.0,,,,,,6
,830.0,,830.0,500.0,stim,single-stim-button,57,127025,0.0-56.0,dietary_decision,True,0,,Healthy,830.0,health_rating,cookiencream,1.0,3.0,,,,,,6
,698.0,,698.0,500.0,stim,single-stim-button,58,128224,0.0-57.0,dietary_decision,True,0,,Very_Healthy,698.0,health_rating,Reeses,2.0,4.0,,,,,,6
,856.0,,856.0,500.0,stim,single-stim-button,59,129583,0.0-58.0,dietary_decision,True,0,,Healthy,856.0,health_rating,uTwix,1.0,5.0,,,,,,6
,596.0,,596.0,500.0,stim,single-stim-button,60,130679,0.0-59.0,dietary_decision,True,0,,Neutral,596.0,health_rating,frozenyogart,0.0,6.0,,,,,,6
,655.0,,655.0,500.0,stim,single-stim-button,61,131835,0.0-60.0,dietary_decision,True,0,,Unhealthy,655.0,health_rating,Ghiradelli,-1.0,7.0,,,,,,6
,658.0,,658.0,500.0,stim,single-stim-button,62,132993,0.0-61.0,dietary_decision,True,0,,Very_Unhealthy,658.0,health_rating,ruffles,-2.0,8.0,,,,,,6
,710.0,,710.0,500.0,stim,single-stim-button,63,134206,0.0-62.0,dietary_decision,True,0,,Unhealthy,710.0,health_rating,mixedyogart,-1.0,9.0,,,,,,6
,431.0,,431.0,500.0,stim,single-stim-button,64,135138,0.0-63.0,dietary_decision,True,0,,Neutral,431.0,health_rating,butterfinger,0.0,10.0,,,,,,6
,552.0,,552.0,500.0,stim,single-stim-button,65,136190,0.0-64.0,dietary_decision,True,0,,Healthy,552.0,health_rating,keeblerrainbow,1.0,11.0,,,,,,6
,478.0,,478.0,500.0,stim,single-stim-button,66,137169,0.0-65.0,dietary_decision,True,0,,Very_Healthy,478.0,health_rating,slimfastV,2.0,12.0,,,,,,6
,585.0,,585.0,500.0,stim,single-stim-button,67,138256,0.0-66.0,dietary_decision,True,0,,Healthy,585.0,health_rating,orangejello,1.0,13.0,,,,,,6
,546.0,,546.0,500.0,stim,single-stim-button,68,139302,0.0-67.0,dietary_decision,True,0,,Neutral,546.0,health_rating,brocollincauliflower,0.0,14.0,,,,,,6
,556.0,,556.0,500.0,stim,single-stim-button,69,140360,0.0-68.0,dietary_decision,True,0,,Unhealthy,556.0,health_rating,carrots,-1.0,15.0,,,,,,6
,437.0,,437.0,500.0,stim,single-stim-button,70,141298,0.0-69.0,dietary_decision,True,0,,Very_Unhealthy,437.0,health_rating,redgrapes,-2.0,16.0,,,,,,6
,608.0,,608.0,500.0,stim,single-stim-button,71,142406,0.0-70.0,dietary_decision,True,0,,Unhealthy,608.0,health_rating,Lindt,-1.0,17.0,,,,,,6
,553.0,,553.0,500.0,stim,single-stim-button,72,143461,0.0-71.0,dietary_decision,True,0,,Neutral,553.0,health_rating,wwbrownie,0.0,18.0,,,,,,6
,460.0,,460.0,500.0,stim,single-stim-button,73,144422,0.0-72.0,dietary_decision,True,0,,Healthy,460.0,health_rating,blueberryyogart,1.0,19.0,,,,,,6
,484.0,,484.0,500.0,stim,single-stim-button,74,145407,0.0-73.0,dietary_decision,True,0,,Very_Healthy,484.0,health_rating,FamousAmos,2.0,20.0,,,,,,6
,743.0,,743.0,500.0,stim,single-stim-button,75,146653,0.0-74.0,dietary_decision,True,0,,Healthy,743.0,health_rating,cranberries,1.0,21.0,,,,,,6
,774.0,,774.0,500.0,stim,single-stim-button,76,147927,0.0-75.0,dietary_decision,True,0,,Neutral,774.0,health_rating,keeblerfudgestripes,0.0,22.0,,,,,,6
,502.0,,502.0,500.0,stim,single-stim-button,77,148931,0.0-76.0,dietary_decision,True,0,,Unhealthy,502.0,health_rating,cherryicecream,-1.0,23.0,,,,,,6
,451.0,,451.0,500.0,stim,single-stim-button,78,149884,0.0-77.0,dietary_decision,True,0,,Very_Unhealthy,451.0,health_rating,ChipsAhoy,-2.0,24.0,,,,,,6
,551.0,,551.0,500.0,stim,single-stim-button,79,150936,0.0-78.0,dietary_decision,True,0,,Unhealthy,551.0,health_rating,raisins,-1.0,25.0,,,,,,6
,460.0,,460.0,500.0,stim,single-stim-button,80,151897,0.0-79.0,dietary_decision,True,0,,Neutral,460.0,health_rating,100Grand,0.0,26.0,,,,,,6
,460.0,,460.0,500.0,stim,single-stim-button,81,152857,0.0-80.0,dietary_decision,True,0,,Healthy,460.0,health_rating,cellery,1.0,27.0,,,,,,6
,1005.0,,1005.0,500.0,stim,single-stim-button,82,154364,0.0-81.0,dietary_decision,True,0,,Very_Healthy,1005.0,health_rating,slimfastC,2.0,28.0,,,,,,6
,962.0,,962.0,500.0,stim,single-stim-button,83,155826,0.0-82.0,dietary_decision,True,0,,Healthy,962.0,health_rating,orange,1.0,29.0,,,,,,6
,830.0,,830.0,500.0,stim,single-stim-button,84,157157,0.0-83.0,dietary_decision,True,0,,Neutral,830.0,health_rating,strussel,0.0,30.0,,,,,,6
,723.0,,723.0,500.0,stim,single-stim-button,85,158381,0.0-84.0,dietary_decision,True,0,,Unhealthy,723.0,health_rating,icecreamsandwich,-1.0,31.0,,,,,,6
,634.0,,634.0,500.0,stim,single-stim-button,86,159516,0.0-85.0,dietary_decision,True,0,,Very_Unhealthy,634.0,health_rating,MrsFields,-2.0,32.0,,,,,,6
,457.0,,457.0,500.0,stim,single-stim-button,87,160473,0.0-86.0,dietary_decision,True,0,,Unhealthy,457.0,health_rating,sbcrackers,-1.0,33.0,,,,,,6
,416.0,,416.0,500.0,stim,single-stim-button,88,161390,0.0-87.0,dietary_decision,True,0,,Neutral,416.0,health_rating,banana,0.0,34.0,,,,,,6
,381.0,,381.0,500.0,stim,single-stim-button,89,162273,0.0-88.0,dietary_decision,True,0,,Healthy,381.0,health_rating,FlamingCheetos,1.0,35.0,,,,,,6
,402.0,,402.0,500.0,stim,single-stim-button,90,163177,0.0-89.0,dietary_decision,True,0,,Very_Healthy,402.0,health_rating,KitKat,2.0,36.0,,,,,,6
,419.0,,419.0,500.0,stim,single-stim-button,91,164097,0.0-90.0,dietary_decision,True,0,,Healthy,419.0,health_rating,grannysmith,1.0,37.0,,,,,,6
,409.0,,409.0,500.0,stim,single-stim-button,92,165007,0.0-91.0,dietary_decision,True,0,,Neutral,409.0,health_rating,specialKbar,0.0,38.0,,,,,,6
,432.0,,432.0,500.0,stim,single-stim-button,93,165941,0.0-92.0,dietary_decision,True,0,,Unhealthy,432.0,health_rating,RiceKrispyTreat,-1.0,39.0,,,,,,6
,374.0,,374.0,500.0,stim,single-stim-button,94,166817,0.0-93.0,dietary_decision,True,0,,Very_Unhealthy,374.0,health_rating,wwmuffin,-2.0,40.0,,,,,,6
,444.0,,444.0,500.0,stim,single-stim-button,95,167761,0.0-94.0,dietary_decision,True,0,,Unhealthy,444.0,health_rating,cookies,-1.0,41.0,,,,,,6
,357.0,,357.0,500.0,stim,single-stim-button,96,168619,0.0-95.0,dietary_decision,True,0,,Neutral,357.0,health_rating,strawberries,0.0,42.0,,,,,,6
,427.0,,427.0,500.0,stim,single-stim-button,97,169548,0.0-96.0,dietary_decision,True,0,,Healthy,427.0,health_rating,laysclassic,1.0,43.0,,,,,,6
,321.0,,321.0,500.0,stim,single-stim-button,98,170370,0.0-97.0,dietary_decision,True,0,,Very_Healthy,321.0,health_rating,Doritosranch,2.0,44.0,,,,,,6
,562.0,,562.0,500.0,stim,single-stim-button,99,171433,0.0-98.0,dietary_decision,True,0,,Healthy,562.0,health_rating,ffraspsorbet,1.0,45.0,,,,,,6
,400.0,,400.0,500.0,stim,single-stim-button,100,172335,0.0-99.0,dietary_decision,True,0,,Neutral,400.0,health_rating,Oreos,0.0,46.0,,,,,,6
,401.0,,401.0,500.0,stim,single-stim-button,101,173236,0.0-100.0,dietary_decision,True,0,,Unhealthy,401.0,health_rating,sbdietbar,-1.0,47.0,,,,,,6
,383.0,,383.0,500.0,stim,single-stim-button,102,174121,0.0-101.0,dietary_decision,True,0,,Very_Unhealthy,383.0,health_rating,uToberlorone,-2.0,48.0,,,,,,6
,526.0,,526.0,500.0,stim,single-stim-button,103,175148,0.0-102.0,dietary_decision,True,0,,Unhealthy,526.0,health_rating,reddelicious,-1.0,49.0,,,,,,6
,3222.0,,3222.0,500.0,stim,single-stim-button,4,22887,0.0-3.0,dietary_decision,True,0,,Very_Healthy,3222.0,health_rating,strawberries,2.0,1.0,,,,,,7
,1723.0,,1723.0,500.0,stim,single-stim-button,5,25122,0.0-4.0,dietary_decision,True,0,,Unhealthy,1723.0,health_rating,cherryicecream,-1.0,2.0,,,,,,7
,1561.0,,1561.0,500.0,stim,single-stim-button,6,27184,0.0-5.0,dietary_decision,True,0,,Unhealthy,1561.0,health_rating,mixedyogart,-1.0,3.0,,,,,,7
,1913.0,,1913.0,500.0,stim,single-stim-button,7,29599,0.0-6.0,dietary_decision,True,0,,Very_Unhealthy,1913.0,health_rating,sbdietbar,-2.0,4.0,,,,,,7
,1814.0,,1814.0,500.0,stim,single-stim-button,8,31916,0.0-7.0,dietary_decision,True,0,,Unhealthy,1814.0,health_rating,butterfinger,-1.0,5.0,,,,,,7
,1706.0,,1706.0,500.0,stim,single-stim-button,9,34128,0.0-8.0,dietary_decision,True,0,,Neutral,1706.0,health_rating,HoHo,0.0,6.0,,,,,,7
,1516.0,,1516.0,500.0,stim,single-stim-button,10,36145,0.0-9.0,dietary_decision,True,0,,Very_Healthy,1516.0,health_rating,reddelicious,2.0,7.0,,,,,,7
,1633.0,,1633.0,500.0,stim,single-stim-button,11,38284,0.0-10.0,dietary_decision,True,0,,Neutral,1633.0,health_rating,RiceKrispyTreat,0.0,8.0,,,,,,7
,1605.0,,1605.0,500.0,stim,single-stim-button,12,40392,0.0-11.0,dietary_decision,True,0,,Unhealthy,1605.0,health_rating,uTwix,-1.0,9.0,,,,,,7
,1619.0,,1619.0,500.0,stim,single-stim-button,13,42512,0.0-12.0,dietary_decision,True,0,,Very_Unhealthy,1619.0,health_rating,orangejello,-2.0,10.0,,,,,,7
,1623.0,,1623.0,500.0,stim,single-stim-button,14,44646,0.0-13.0,dietary_decision,True,0,,Very_Healthy,1623.0,health_rating,cranberries,2.0,11.0,,,,,,7
,1972.0,,1972.0,500.0,stim,single-stim-button,15,47126,0.0-14.0,dietary_decision,True,0,,Unhealthy,1972.0,health_rating,FlamingCheetos,-1.0,12.0,,,,,,7
,1604.0,,1604.0,500.0,stim,single-stim-button,16,49236,0.0-15.0,dietary_decision,True,0,,Healthy,1604.0,health_rating,Lindt,1.0,13.0,,,,,,7
,1336.0,,1336.0,500.0,stim,single-stim-button,17,51073,0.0-16.0,dietary_decision,True,0,,Healthy,1336.0,health_rating,Reeses,1.0,14.0,,,,,,7
,2153.0,,2153.0,500.0,stim,single-stim-button,18,53736,0.0-17.0,dietary_decision,True,0,,Neutral,2153.0,health_rating,ChipsAhoy,0.0,15.0,,,,,,7
,1587.0,,1587.0,500.0,stim,single-stim-button,19,55831,0.0-18.0,dietary_decision,True,0,,Neutral,1587.0,health_rating,FamousAmos,0.0,16.0,,,,,,7
,1686.0,,1686.0,500.0,stim,single-stim-button,20,58019,0.0-19.0,dietary_decision,True,0,,Very_Healthy,1686.0,health_rating,raisins,2.0,17.0,,,,,,7
,1606.0,,1606.0,500.0,stim,single-stim-button,21,60126,0.0-20.0,dietary_decision,True,0,,Healthy,1606.0,health_rating,keeblerfudgestripes,1.0,18.0,,,,,,7
,1500.0,,1500.0,500.0,stim,single-stim-button,22,62127,0.0-21.0,dietary_decision,True,0,,Healthy,1500.0,health_rating,Doritosranch,1.0,19.0,,,,,,7
,1510.0,,1510.0,500.0,stim,single-stim-button,23,64137,0.0-22.0,dietary_decision,True,0,,Unhealthy,1510.0,health_rating,carrots,-1.0,20.0,,,,,,7
,1675.0,,1675.0,500.0,stim,single-stim-button,24,66312,0.0-23.0,dietary_decision,True,0,,Very_Healthy,1675.0,health_rating,whitegrapes,2.0,21.0,,,,,,7
,1798.0,,1798.0,500.0,stim,single-stim-button,25,68611,0.0-24.0,dietary_decision,True,0,,Unhealthy,1798.0,health_rating,cookies,-1.0,22.0,,,,,,7
,1587.0,,1587.0,500.0,stim,single-stim-button,26,70704,0.0-25.0,dietary_decision,True,0,,Healthy,1587.0,health_rating,wwmuffin,1.0,23.0,,,,,,7
,1426.0,,1426.0,500.0,stim,single-stim-button,27,72631,0.0-26.0,dietary_decision,True,0,,Very_Healthy,1426.0,health_rating,brocollincauliflower,2.0,24.0,,,,,,7
,1516.0,,1516.0,500.0,stim,single-stim-button,28,74663,0.0-27.0,dietary_decision,True,0,,Healthy,1516.0,health_rating,strussel,1.0,25.0,,,,,,7
,1315.0,,1315.0,500.0,stim,single-stim-button,29,76479,0.0-28.0,dietary_decision,True,0,,Very_Healthy,1315.0,health_rating,banana,2.0,26.0,,,,,,7
,1186.0,,1186.0,500.0,stim,single-stim-button,30,78166,0.0-29.0,dietary_decision,True,0,,Very_Healthy,1186.0,health_rating,grannysmith,2.0,27.0,,,,,,7
,1648.0,,1648.0,500.0,stim,single-stim-button,31,80326,0.0-30.0,dietary_decision,True,0,,Neutral,1648.0,health_rating,100Grand,0.0,28.0,,,,,,7
,1403.0,,1403.0,500.0,stim,single-stim-button,32,82230,0.0-31.0,dietary_decision,True,0,,Unhealthy,1403.0,health_rating,Oreos,-1.0,29.0,,,,,,7
,1193.0,,1193.0,500.0,stim,single-stim-button,33,83936,0.0-32.0,dietary_decision,True,0,,Unhealthy,1193.0,health_rating,uToberlorone,-1.0,30.0,,,,,,7
,1418.0,,1418.0,500.0,stim,single-stim-button,34,85866,0.0-33.0,dietary_decision,True,0,,Healthy,1418.0,health_rating,slimfastV,1.0,31.0,,,,,,7
,1715.0,,1715.0,500.0,stim,single-stim-button,35,88083,0.0-34.0,dietary_decision,True,0,,Neutral,1715.0,health_rating,KitKat,0.0,32.0,,,,,,7
,1457.0,,1457.0,500.0,stim,single-stim-button,36,90045,0.0-35.0,dietary_decision,True,0,,Unhealthy,1457.0,health_rating,specialKbar,-1.0,33.0,,,,,,7
,1041.0,,1041.0,500.0,stim,single-stim-button,37,91601,0.0-36.0,dietary_decision,True,0,,Unhealthy,1041.0,health_rating,frozenyogart,-1.0,34.0,,,,,,7
,1847.0,,1847.0,500.0,stim,single-stim-button,38,93961,0.0-37.0,dietary_decision,True,0,,Very_Healthy,1847.0,health_rating,sbcrackers,2.0,35.0,,,,,,7
,1297.0,,1297.0,500.0,stim,single-stim-button,39,95771,0.0-38.0,dietary_decision,True,0,,Very_Healthy,1297.0,health_rating,blueberryyogart,2.0,36.0,,,,,,7
,1158.0,,1158.0,500.0,stim,single-stim-button,40,97442,0.0-39.0,dietary_decision,True,0,,Very_Healthy,1158.0,health_rating,wheatcrisps,2.0,37.0,,,,,,7
,1403.0,,1403.0,500.0,stim,single-stim-button,41,99349,0.0-40.0,dietary_decision,True,0,,Healthy,1403.0,health_rating,icecreamsandwich,1.0,38.0,,,,,,7
,1231.0,,1231.0,500.0,stim,single-stim-button,42,101090,0.0-41.0,dietary_decision,True,0,,Healthy,1231.0,health_rating,cookiencream,1.0,39.0,,,,,,7
,1063.0,,1063.0,500.0,stim,single-stim-button,43,102669,0.0-42.0,dietary_decision,True,0,,Healthy,1063.0,health_rating,cellery,1.0,40.0,,,,,,7
,1405.0,,1405.0,500.0,stim,single-stim-button,44,104585,0.0-43.0,dietary_decision,True,0,,Healthy,1405.0,health_rating,ruffles,1.0,41.0,,,,,,7
,1448.0,,1448.0,500.0,stim,single-stim-button,45,106537,0.0-44.0,dietary_decision,True,0,,Healthy,1448.0,health_rating,slimfastC,1.0,42.0,,,,,,7
,1653.0,,1653.0,500.0,stim,single-stim-button,46,108698,0.0-45.0,dietary_decision,True,0,,Very_Unhealthy,1653.0,health_rating,laysclassic,-2.0,43.0,,,,,,7
,3511.0,,3511.0,500.0,stim,single-stim-button,47,112720,0.0-46.0,dietary_decision,True,0,,Very_Healthy,3511.0,health_rating,ffraspsorbet,2.0,44.0,,,,,,7
,2265.0,,2265.0,500.0,stim,single-stim-button,48,115496,0.0-47.0,dietary_decision,True,0,,Very_Healthy,2265.0,health_rating,orange,2.0,45.0,,,,,,7
,876.0,,876.0,500.0,stim,single-stim-button,49,116875,0.0-48.0,dietary_decision,True,0,,Very_Healthy,876.0,health_rating,redgrapes,2.0,46.0,,,,,,7
,1571.0,,1571.0,500.0,stim,single-stim-button,50,118957,0.0-49.0,dietary_decision,True,0,,Neutral,1571.0,health_rating,MrsFields,0.0,47.0,,,,,,7
,1303.0,,1303.0,500.0,stim,single-stim-button,51,120774,0.0-50.0,dietary_decision,True,0,,Healthy,1303.0,health_rating,keeblerrainbow,1.0,48.0,,,,,,7
,1478.0,,1478.0,500.0,stim,single-stim-button,52,122768,0.0-51.0,dietary_decision,True,0,,Unhealthy,1478.0,health_rating,wwbrownie,-1.0,49.0,,,,,,7
,1342.0,,1342.0,500.0,stim,single-stim-button,4,18059,0.0-3.0,dietary_decision,True,0,,Very_Healthy,1342.0,health_rating,strawberries,2.0,1.0,,,,,,8
,2009.0,,2009.0,500.0,stim,single-stim-button,5,20571,0.0-4.0,dietary_decision,True,0,,Unhealthy,2009.0,health_rating,RiceKrispyTreat,-1.0,2.0,,,,,,8
,1195.0,,1195.0,500.0,stim,single-stim-button,6,22267,0.0-5.0,dietary_decision,True,0,,Unhealthy,1195.0,health_rating,strussel,-1.0,3.0,,,,,,8
,1667.0,,1667.0,500.0,stim,single-stim-button,7,24434,0.0-6.0,dietary_decision,True,0,,Healthy,1667.0,health_rating,frozenyogart,1.0,4.0,,,,,,8
,1890.0,,1890.0,500.0,stim,single-stim-button,8,26826,0.0-7.0,dietary_decision,True,0,,Unhealthy,1890.0,health_rating,sbcrackers,-1.0,5.0,,,,,,8
,1441.0,,1441.0,500.0,stim,single-stim-button,9,28768,0.0-8.0,dietary_decision,True,0,,Unhealthy,1441.0,health_rating,wwbrownie,-1.0,6.0,,,,,,8
,1293.0,,1293.0,500.0,stim,single-stim-button,10,30562,0.0-9.0,dietary_decision,True,0,,Very_Healthy,1293.0,health_rating,reddelicious,2.0,7.0,,,,,,8
,1324.0,,1324.0,500.0,stim,single-stim-button,11,32389,0.0-10.0,dietary_decision,True,0,,Unhealthy,1324.0,health_rating,Oreos,-1.0,8.0,,,,,,8
,1699.0,,1699.0,500.0,stim,single-stim-button,12,34589,0.0-11.0,dietary_decision,True,0,,Unhealthy,1699.0,health_rating,specialKbar,-1.0,9.0,,,,,,8
,1555.0,,1555.0,500.0,stim,single-stim-button,13,36646,0.0-12.0,dietary_decision,True,0,,Unhealthy,1555.0,health_rating,Doritosranch,-1.0,10.0,,,,,,8
,2273.0,,2273.0,500.0,stim,single-stim-button,14,39420,0.0-13.0,dietary_decision,True,0,,Very_Healthy,2273.0,health_rating,carrots,2.0,11.0,,,,,,8
,1445.0,,1445.0,500.0,stim,single-stim-button,15,41368,0.0-14.0,dietary_decision,True,0,,Very_Healthy,1445.0,health_rating,wheatcrisps,2.0,12.0,,,,,,8
,820.0,,820.0,500.0,stim,single-stim-button,16,42690,0.0-15.0,dietary_decision,True,0,,Very_Healthy,820.0,health_rating,grannysmith,2.0,13.0,,,,,,8
,3144.0,,3144.0,500.0,stim,single-stim-button,17,46336,0.0-16.0,dietary_decision,True,0,,Very_Healthy,3144.0,health_rating,slimfastV,2.0,14.0,,,,,,8
,1489.0,,1489.0,500.0,stim,single-stim-button,18,48325,0.0-17.0,dietary_decision,True,0,,Very_Healthy,1489.0,health_rating,brocollincauliflower,2.0,15.0,,,,,,8
,2655.0,,2655.0,500.0,stim,single-stim-button,19,51483,0.0-18.0,dietary_decision,True,0,,Healthy,2655.0,health_rating,sbdietbar,1.0,16.0,,,,,,8
,1268.0,,1268.0,500.0,stim,single-stim-button,20,53252,0.0-19.0,dietary_decision,True,0,,Healthy,1268.0,health_rating,cranberries,1.0,17.0,,,,,,8
,2052.0,,2052.0,500.0,stim,single-stim-button,21,55806,0.0-20.0,dietary_decision,True,0,,Unhealthy,2052.0,health_rating,keeblerfudgestripes,-1.0,18.0,,,,,,8
,1855.0,,1855.0,500.0,stim,single-stim-button,22,58162,0.0-21.0,dietary_decision,True,0,,Neutral,1855.0,health_rating,Reeses,0.0,19.0,,,,,,8
,2973.0,,2973.0,500.0,stim,single-stim-button,23,61636,0.0-22.0,dietary_decision,True,0,,Healthy,2973.0,health_rating,ffraspsorbet,1.0,20.0,,,,,,8
,1261.0,,1261.0,500.0,stim,single-stim-button,24,63399,0.0-23.0,dietary_decision,True,0,,Neutral,1261.0,health_rating,FamousAmos,0.0,21.0,,,,,,8
,746.0,,746.0,500.0,stim,single-stim-button,25,64646,0.0-24.0,dietary_decision,True,0,,Healthy,746.0,health_rating,whitegrapes,1.0,22.0,,,,,,8
,1120.0,,1120.0,500.0,stim,single-stim-button,26,66268,0.0-25.0,dietary_decision,True,0,,Neutral,1120.0,health_rating,MrsFields,0.0,23.0,,,,,,8
,1082.0,,1082.0,500.0,stim,single-stim-button,27,67852,0.0-26.0,dietary_decision,True,0,,Neutral,1082.0,health_rating,uTwix,0.0,24.0,,,,,,8
,1128.0,,1128.0,500.0,stim,single-stim-button,28,69482,0.0-27.0,dietary_decision,True,0,,Unhealthy,1128.0,health_rating,butterfinger,-1.0,25.0,,,,,,8
,1595.0,,1595.0,500.0,stim,single-stim-button,29,71578,0.0-28.0,dietary_decision,True,0,,Very_Healthy,1595.0,health_rating,cherryicecream,2.0,26.0,,,,,,8
,1072.0,,1072.0,500.0,stim,single-stim-button,30,73152,0.0-29.0,dietary_decision,True,0,,Unhealthy,1072.0,health_rating,icecreamsandwich,-1.0,27.0,,,,,,8
,3267.0,,3267.0,500.0,stim,single-stim-button,31,76920,0.0-30.0,dietary_decision,True,0,,Neutral,3267.0,health_rating,cookies,0.0,28.0,,,,,,8
,2098.0,,2098.0,500.0,stim,single-stim-button,32,79520,0.0-31.0,dietary_decision,True,0,,Neutral,2098.0,health_rating,FlamingCheetos,0.0,29.0,,,,,,8
,1491.0,,1491.0,500.0,stim,single-stim-button,33,81512,0.0-32.0,dietary_decision,True,0,,Very_Healthy,1491.0,health_rating,slimfastC,2.0,30.0,,,,,,8
,1349.0,,1349.0,500.0,stim,single-stim-button,34,83362,0.0-33.0,dietary_decision,True,0,,Unhealthy,1349.0,health_rating,uToberlorone,-1.0,31.0,,,,,,8
,1702.0,,1702.0,500.0,stim,single-stim-button,35,85566,0.0-34.0,dietary_decision,True,0,,Healthy,1702.0,health_rating,mixedyogart,1.0,32.0,,,,,,8
,1505.0,,1505.0,500.0,stim,single-stim-button,36,87572,0.0-35.0,dietary_decision,True,0,,Neutral,1505.0,health_rating,laysclassic,0.0,33.0,,,,,,8
,1455.0,,1455.0,500.0,stim,single-stim-button,37,89529,0.0-36.0,dietary_decision,True,0,,Neutral,1455.0,health_rating,HoHo,0.0,34.0,,,,,,8
,1645.0,,1645.0,500.0,stim,single-stim-button,38,91675,0.0-37.0,dietary_decision,True,0,,Unhealthy,1645.0,health_rating,ChipsAhoy,-1.0,35.0,,,,,,8
,1464.0,,1464.0,500.0,stim,single-stim-button,39,93640,0.0-38.0,dietary_decision,True,0,,Neutral,1464.0,health_rating,100Grand,0.0,36.0,,,,,,8
,801.0,,801.0,500.0,stim,single-stim-button,40,94944,0.0-39.0,dietary_decision,True,0,,Neutral,801.0,health_rating,keeblerrainbow,0.0,37.0,,,,,,8
,1416.0,,1416.0,500.0,stim,single-stim-button,41,96861,0.0-40.0,dietary_decision,True,0,,Very_Healthy,1416.0,health_rating,orange,2.0,38.0,,,,,,8
,1398.0,,1398.0,500.0,stim,single-stim-button,42,98760,0.0-41.0,dietary_decision,True,0,,Neutral,1398.0,health_rating,Ghiradelli,0.0,39.0,,,,,,8
,935.0,,935.0,500.0,stim,single-stim-button,43,100197,0.0-42.0,dietary_decision,True,0,,Neutral,935.0,health_rating,orangejello,0.0,40.0,,,,,,8
,1202.0,,1202.0,500.0,stim,single-stim-button,44,101901,0.0-43.0,dietary_decision,True,0,,Neutral,1202.0,health_rating,ruffles,0.0,41.0,,,,,,8
,837.0,,837.0,500.0,stim,single-stim-button,45,103238,0.0-44.0,dietary_decision,True,0,,Neutral,837.0,health_rating,Lindt,0.0,42.0,,,,,,8
,960.0,,960.0,500.0,stim,single-stim-button,46,104700,0.0-45.0,dietary_decision,True,0,,Neutral,960.0,health_rating,cookiencream,0.0,43.0,,,,,,8
,1747.0,,1747.0,500.0,stim,single-stim-button,47,106949,0.0-46.0,dietary_decision,True,0,,Very_Healthy,1747.0,health_rating,cellery,2.0,44.0,,,,,,8
,1554.0,,1554.0,500.0,stim,single-stim-button,48,109003,0.0-47.0,dietary_decision,True,0,,Very_Healthy,1554.0,health_rating,banana,2.0,45.0,,,,,,8
,2184.0,,2184.0,500.0,stim,single-stim-button,49,111688,0.0-48.0,dietary_decision,True,0,,Very_Healthy,2184.0,health_rating,raisins,2.0,46.0,,,,,,8
,2141.0,,2141.0,500.0,stim,single-stim-button,50,114330,0.0-49.0,dietary_decision,True,0,,Unhealthy,2141.0,health_rating,wwmuffin,-1.0,47.0,,,,,,8
,1668.0,,1668.0,500.0,stim,single-stim-button,51,116501,0.0-50.0,dietary_decision,True,0,,Very_Healthy,1668.0,health_rating,blueberryyogart,2.0,48.0,,,,,,8
,1390.0,,1390.0,500.0,stim,single-stim-button,52,118392,0.0-51.0,dietary_decision,True,0,,Neutral,1390.0,health_rating,KitKat,0.0,49.0,,,,,,8
,2344.0,,2344.0,500.0,stim,single-stim-button,4,34729,0.0-3.0,dietary_decision,True,0,,Unhealthy,2344.0,health_rating,cherryicecream,-1.0,1.0,,,,,,9
,1821.0,,1821.0,500.0,stim,single-stim-button,5,37059,0.0-4.0,dietary_decision,True,0,,Unhealthy,1821.0,health_rating,uTwix,-1.0,2.0,,,,,,9
,1760.0,,1760.0,500.0,stim,single-stim-button,6,39327,0.0-5.0,dietary_decision,True,0,,Very_Healthy,1760.0,health_rating,banana,2.0,3.0,,,,,,9
,2042.0,,2042.0,500.0,stim,single-stim-button,7,41871,0.0-6.0,dietary_decision,True,0,,Unhealthy,2042.0,health_rating,HoHo,-1.0,4.0,,,,,,9
,1624.0,,1624.0,500.0,stim,single-stim-button,8,44010,0.0-7.0,dietary_decision,True,0,,Unhealthy,1624.0,health_rating,KitKat,-1.0,5.0,,,,,,9
,2106.0,,2106.0,500.0,stim,single-stim-button,9,46619,0.0-8.0,dietary_decision,True,0,,Unhealthy,2106.0,health_rating,100Grand,-1.0,6.0,,,,,,9
,2302.0,,2302.0,500.0,stim,single-stim-button,10,49424,0.0-9.0,dietary_decision,True,0,,Very_Healthy,2302.0,health_rating,sbdietbar,2.0,7.0,,,,,,9
,2330.0,,2330.0,500.0,stim,single-stim-button,11,52261,0.0-10.0,dietary_decision,True,0,,Unhealthy,2330.0,health_rating,wwbrownie,-1.0,8.0,,,,,,9
,2176.0,,2176.0,500.0,stim,single-stim-button,12,54939,0.0-11.0,dietary_decision,True,0,,Neutral,2176.0,health_rating,orangejello,0.0,9.0,,,,,,9
,2014.0,,2014.0,500.0,stim,single-stim-button,13,57468,0.0-12.0,dietary_decision,True,0,,Unhealthy,2014.0,health_rating,laysclassic,-1.0,10.0,,,,,,9
,2475.0,,2475.0,500.0,stim,single-stim-button,14,60452,0.0-13.0,dietary_decision,True,0,,Healthy,2475.0,health_rating,ffraspsorbet,1.0,11.0,,,,,,9
,1769.0,,1769.0,500.0,stim,single-stim-button,15,62728,0.0-14.0,dietary_decision,True,0,,Unhealthy,1769.0,health_rating,wwmuffin,-1.0,12.0,,,,,,9
,2245.0,,2245.0,500.0,stim,single-stim-button,16,65475,0.0-15.0,dietary_decision,True,0,,Unhealthy,2245.0,health_rating,FamousAmos,-1.0,13.0,,,,,,9
,1488.0,,1488.0,500.0,stim,single-stim-button,17,67465,0.0-16.0,dietary_decision,True,0,,Unhealthy,1488.0,health_rating,Oreos,-1.0,14.0,,,,,,9
,2234.0,,2234.0,500.0,stim,single-stim-button,18,70205,0.0-17.0,dietary_decision,True,0,,Unhealthy,2234.0,health_rating,icecreamsandwich,-1.0,15.0,,,,,,9
,2114.0,,2114.0,500.0,stim,single-stim-button,19,72833,0.0-18.0,dietary_decision,True,0,,Healthy,2114.0,health_rating,slimfastC,1.0,16.0,,,,,,9
,1718.0,,1718.0,500.0,stim,single-stim-button,20,75065,0.0-19.0,dietary_decision,True,0,,Very_Healthy,1718.0,health_rating,whitegrapes,2.0,17.0,,,,,,9
,1646.0,,1646.0,500.0,stim,single-stim-button,21,77211,0.0-20.0,dietary_decision,True,0,,Unhealthy,1646.0,health_rating,keeblerrainbow,-1.0,18.0,,,,,,9
,1839.0,,1839.0,500.0,stim,single-stim-button,22,79558,0.0-21.0,dietary_decision,True,0,,Unhealthy,1839.0,health_rating,Doritosranch,-1.0,19.0,,,,,,9
,2627.0,,2627.0,500.0,stim,single-stim-button,23,82691,0.0-22.0,dietary_decision,True,0,,Healthy,2627.0,health_rating,wheatcrisps,1.0,20.0,,,,,,9
,1382.0,,1382.0,500.0,stim,single-stim-button,24,84580,0.0-23.0,dietary_decision,True,0,,Very_Healthy,1382.0,health_rating,grannysmith,2.0,21.0,,,,,,9
,2843.0,,2843.0,500.0,stim,single-stim-button,25,87926,0.0-24.0,dietary_decision,True,0,,Neutral,2843.0,health_rating,slimfastV,0.0,22.0,,,,,,9
,1469.0,,1469.0,500.0,stim,single-stim-button,26,89910,0.0-25.0,dietary_decision,True,0,,Unhealthy,1469.0,health_rating,butterfinger,-1.0,23.0,,,,,,9
,1749.0,,1749.0,500.0,stim,single-stim-button,27,92174,0.0-26.0,dietary_decision,True,0,,Very_Healthy,1749.0,health_rating,cellery,2.0,24.0,,,,,,9
,1847.0,,1847.0,500.0,stim,single-stim-button,28,94534,0.0-27.0,dietary_decision,True,0,,Neutral,1847.0,health_rating,Lindt,0.0,25.0,,,,,,9
,2211.0,,2211.0,500.0,stim,single-stim-button,29,97247,0.0-28.0,dietary_decision,True,0,,Neutral,2211.0,health_rating,cookies,0.0,26.0,,,,,,9
,2050.0,,2050.0,500.0,stim,single-stim-button,30,99800,0.0-29.0,dietary_decision,True,0,,Healthy,2050.0,health_rating,mixedyogart,1.0,27.0,,,,,,9
,1717.0,,1717.0,500.0,stim,single-stim-button,31,102021,0.0-30.0,dietary_decision,True,0,,Unhealthy,1717.0,health_rating,uToberlorone,-1.0,28.0,,,,,,9
,2645.0,,2645.0,500.0,stim,single-stim-button,32,105167,0.0-31.0,dietary_decision,True,0,,Healthy,2645.0,health_rating,brocollincauliflower,1.0,29.0,,,,,,9
,1704.0,,1704.0,500.0,stim,single-stim-button,33,107386,0.0-32.0,dietary_decision,True,0,,Unhealthy,1704.0,health_rating,ChipsAhoy,-1.0,30.0,,,,,,9
,1612.0,,1612.0,500.0,stim,single-stim-button,34,109512,0.0-33.0,dietary_decision,True,0,,Very_Healthy,1612.0,health_rating,orange,2.0,31.0,,,,,,9
,1871.0,,1871.0,500.0,stim,single-stim-button,35,111887,0.0-34.0,dietary_decision,True,0,,Healthy,1871.0,health_rating,sbcrackers,1.0,32.0,,,,,,9
,2194.0,,2194.0,500.0,stim,single-stim-button,36,114596,0.0-35.0,dietary_decision,True,0,,Neutral,2194.0,health_rating,cookiencream,0.0,33.0,,,,,,9
,1709.0,,1709.0,500.0,stim,single-stim-button,37,116813,0.0-36.0,dietary_decision,True,0,,Healthy,1709.0,health_rating,carrots,1.0,34.0,,,,,,9
,1840.0,,1840.0,500.0,stim,single-stim-button,38,119160,0.0-37.0,dietary_decision,True,0,,Unhealthy,1840.0,health_rating,Ghiradelli,-1.0,35.0,,,,,,9
,2326.0,,2326.0,500.0,stim,single-stim-button,39,121997,0.0-38.0,dietary_decision,True,0,,Neutral,2326.0,health_rating,strussel,0.0,36.0,,,,,,9
,1481.0,,1481.0,500.0,stim,single-stim-button,40,123989,0.0-39.0,dietary_decision,True,0,,Very_Healthy,1481.0,health_rating,reddelicious,2.0,37.0,,,,,,9
,2037.0,,2037.0,500.0,stim,single-stim-button,41,126534,0.0-40.0,dietary_decision,True,0,,Healthy,2037.0,health_rating,raisins,1.0,38.0,,,,,,9
,3100.0,,3100.0,500.0,stim,single-stim-button,42,130146,0.0-41.0,dietary_decision,True,0,,Unhealthy,3100.0,health_rating,ruffles,-1.0,39.0,,,,,,9
,1393.0,,1393.0,500.0,stim,single-stim-button,43,132055,0.0-42.0,dietary_decision,True,0,,Very_Healthy,1393.0,health_rating,redgrapes,2.0,40.0,,,,,,9
,1868.0,,1868.0,500.0,stim,single-stim-button,44,134439,0.0-43.0,dietary_decision,True,0,,Very_Healthy,1868.0,health_rating,blueberryyogart,2.0,41.0,,,,,,9
,1829.0,,1829.0,500.0,stim,single-stim-button,45,136780,0.0-44.0,dietary_decision,True,0,,Neutral,1829.0,health_rating,specialKbar,0.0,42.0,,,,,,9
,1447.0,,1447.0,500.0,stim,single-stim-button,46,138732,0.0-45.0,dietary_decision,True,0,,Healthy,1447.0,health_rating,frozenyogart,1.0,43.0,,,,,,9
,1919.0,,1919.0,500.0,stim,single-stim-button,47,141153,0.0-46.0,dietary_decision,True,0,,Neutral,1919.0,health_rating,RiceKrispyTreat,0.0,44.0,,,,,,9
,1549.0,,1549.0,500.0,stim,single-stim-button,48,143205,0.0-47.0,dietary_decision,True,0,,Very_Healthy,1549.0,health_rating,strawberries,2.0,45.0,,,,,,9
,1993.0,,1993.0,500.0,stim,single-stim-button,49,145709,0.0-48.0,dietary_decision,True,0,,Unhealthy,1993.0,health_rating,FlamingCheetos,-1.0,46.0,,,,,,9
,2160.0,,2160.0,500.0,stim,single-stim-button,50,148370,0.0-49.0,dietary_decision,True,0,,Unhealthy,2160.0,health_rating,Reeses,-1.0,47.0,,,,,,9
,1984.0,,1984.0,500.0,stim,single-stim-button,51,150857,0.0-50.0,dietary_decision,True,0,,Very_Healthy,1984.0,health_rating,cranberries,2.0,48.0,,,,,,9
,2550.0,,2550.0,500.0,stim,single-stim-button,52,153916,0.0-51.0,dietary_decision,True,0,,Unhealthy,2550.0,health_rating,keeblerfudgestripes,-1.0,49.0,,,,,,9
,2333.0,,2333.0,500.0,stim,single-stim-button,54,122653,0.0-53.0,dietary_decision,True,0,,Unhealthy,2333.0,health_rating,cherryicecream,-1.0,0.0,,,,,,10
,729.0,,729.0,500.0,stim,single-stim-button,55,123883,0.0-54.0,dietary_decision,True,0,,Unhealthy,729.0,health_rating,sbdietbar,-1.0,1.0,,,,,,10
,1093.0,,1093.0,500.0,stim,single-stim-button,56,125478,0.0-55.0,dietary_decision,True,0,,Unhealthy,1093.0,health_rating,icecreamsandwich,-1.0,2.0,,,,,,10
,1568.0,,1568.0,500.0,stim,single-stim-button,57,127548,0.0-56.0,dietary_decision,True,0,,Unhealthy,1568.0,health_rating,ruffles,-1.0,3.0,,,,,,10
,1636.0,,1636.0,500.0,stim,single-stim-button,58,129684,0.0-57.0,dietary_decision,True,0,,Neutral,1636.0,health_rating,orangejello,0.0,4.0,,,,,,10
,980.0,,980.0,500.0,stim,single-stim-button,59,131166,0.0-58.0,dietary_decision,True,0,,Unhealthy,980.0,health_rating,butterfinger,-1.0,5.0,,,,,,10
,1522.0,,1522.0,500.0,stim,single-stim-button,60,133188,0.0-59.0,dietary_decision,True,0,,Very_Healthy,1522.0,health_rating,orange,2.0,6.0,,,,,,10
,1416.0,,1416.0,500.0,stim,single-stim-button,61,135105,0.0-60.0,dietary_decision,True,0,,Neutral,1416.0,health_rating,raisins,0.0,7.0,,,,,,10
,1117.0,,1117.0,500.0,stim,single-stim-button,62,136724,0.0-61.0,dietary_decision,True,0,,Unhealthy,1117.0,health_rating,frozenyogart,-1.0,8.0,,,,,,10
,3438.0,,3438.0,500.0,stim,single-stim-button,63,140663,0.0-62.0,dietary_decision,True,0,,Neutral,3438.0,health_rating,specialKbar,0.0,9.0,,,,,,10
,1221.0,,1221.0,500.0,stim,single-stim-button,64,142387,0.0-63.0,dietary_decision,True,0,,Unhealthy,1221.0,health_rating,KitKat,-1.0,10.0,,,,,,10
,1150.0,,1150.0,500.0,stim,single-stim-button,65,144039,0.0-64.0,dietary_decision,True,0,,Unhealthy,1150.0,health_rating,slimfastV,-1.0,11.0,,,,,,10
,1116.0,,1116.0,500.0,stim,single-stim-button,66,145656,0.0-65.0,dietary_decision,True,0,,Unhealthy,1116.0,health_rating,HoHo,-1.0,12.0,,,,,,10
,1667.0,,1667.0,500.0,stim,single-stim-button,67,147824,0.0-66.0,dietary_decision,True,0,,Unhealthy,1667.0,health_rating,MrsFields,-1.0,13.0,,,,,,10
,2477.0,,2477.0,500.0,stim,single-stim-button,68,150803,0.0-67.0,dietary_decision,True,0,,Unhealthy,2477.0,health_rating,strussel,-1.0,14.0,,,,,,10
,1740.0,,1740.0,500.0,stim,single-stim-button,69,153043,0.0-68.0,dietary_decision,True,0,,Neutral,1740.0,health_rating,cranberries,0.0,15.0,,,,,,10
,1780.0,,1780.0,500.0,stim,single-stim-button,70,155325,0.0-69.0,dietary_decision,True,0,,Neutral,1780.0,health_rating,keeblerfudgestripes,0.0,16.0,,,,,,10
,1304.0,,1304.0,500.0,stim,single-stim-button,71,157130,0.0-70.0,dietary_decision,True,0,,Healthy,1304.0,health_rating,strawberries,1.0,17.0,,,,,,10
,1277.0,,1277.0,500.0,stim,single-stim-button,72,158908,0.0-71.0,dietary_decision,True,0,,Unhealthy,1277.0,health_rating,uToberlorone,-1.0,18.0,,,,,,10
,283.0,,283.0,500.0,stim,single-stim-button,73,159693,0.0-72.0,dietary_decision,True,0,,Healthy,283.0,health_rating,wheatcrisps,1.0,19.0,,,,,,10
,1021.0,,1021.0,500.0,stim,single-stim-button,74,161216,0.0-73.0,dietary_decision,True,0,,Healthy,1021.0,health_rating,whitegrapes,1.0,20.0,,,,,,10
,1027.0,,1027.0,500.0,stim,single-stim-button,75,162744,0.0-74.0,dietary_decision,True,0,,Unhealthy,1027.0,health_rating,cookies,-1.0,21.0,,,,,,10
,963.0,,963.0,500.0,stim,single-stim-button,76,164209,0.0-75.0,dietary_decision,True,0,,Healthy,963.0,health_rating,redgrapes,1.0,22.0,,,,,,10
,1505.0,,1505.0,500.0,stim,single-stim-button,77,166216,0.0-76.0,dietary_decision,True,0,,Neutral,1505.0,health_rating,keeblerrainbow,0.0,23.0,,,,,,10
,1207.0,,1207.0,500.0,stim,single-stim-button,78,167923,0.0-77.0,dietary_decision,True,0,,Neutral,1207.0,health_rating,sbcrackers,0.0,24.0,,,,,,10
,1287.0,,1287.0,500.0,stim,single-stim-button,79,169712,0.0-78.0,dietary_decision,True,0,,Unhealthy,1287.0,health_rating,Ghiradelli,-1.0,25.0,,,,,,10
,1058.0,,1058.0,500.0,stim,single-stim-button,80,171272,0.0-79.0,dietary_decision,True,0,,Unhealthy,1058.0,health_rating,laysclassic,-1.0,26.0,,,,,,10
,1684.0,,1684.0,500.0,stim,single-stim-button,81,173457,0.0-80.0,dietary_decision,True,0,,Unhealthy,1684.0,health_rating,ffraspsorbet,-1.0,27.0,,,,,,10
,2119.0,,2119.0,500.0,stim,single-stim-button,82,176077,0.0-81.0,dietary_decision,True,0,,Neutral,2119.0,health_rating,brocollincauliflower,0.0,28.0,,,,,,10
,1442.0,,1442.0,500.0,stim,single-stim-button,83,178021,0.0-82.0,dietary_decision,True,0,,Unhealthy,1442.0,health_rating,ChipsAhoy,-1.0,29.0,,,,,,10
,1343.0,,1343.0,500.0,stim,single-stim-button,84,179865,0.0-83.0,dietary_decision,True,0,,Unhealthy,1343.0,health_rating,Oreos,-1.0,30.0,,,,,,10
,1619.0,,1619.0,500.0,stim,single-stim-button,85,181985,0.0-84.0,dietary_decision,True,0,,Unhealthy,1619.0,health_rating,FlamingCheetos,-1.0,31.0,,,,,,10
,1003.0,,1003.0,500.0,stim,single-stim-button,86,183490,0.0-85.0,dietary_decision,True,0,,Unhealthy,1003.0,health_rating,Lindt,-1.0,32.0,,,,,,10
,1424.0,,1424.0,500.0,stim,single-stim-button,87,185415,0.0-86.0,dietary_decision,True,0,,Very_Healthy,1424.0,health_rating,grannysmith,2.0,33.0,,,,,,10
,1571.0,,1571.0,500.0,stim,single-stim-button,88,187488,0.0-87.0,dietary_decision,True,0,,Unhealthy,1571.0,health_rating,FamousAmos,-1.0,34.0,,,,,,10
,1770.0,,1770.0,500.0,stim,single-stim-button,89,189760,0.0-88.0,dietary_decision,True,0,,Unhealthy,1770.0,health_rating,Doritosranch,-1.0,35.0,,,,,,10
,2719.0,,2719.0,500.0,stim,single-stim-button,90,192981,0.0-89.0,dietary_decision,True,0,,Healthy,2719.0,health_rating,mixedyogart,1.0,36.0,,,,,,10
,2160.0,,2160.0,500.0,stim,single-stim-button,91,195642,0.0-90.0,dietary_decision,True,0,,Unhealthy,2160.0,health_rating,wwmuffin,-1.0,37.0,,,,,,10
,1320.0,,1320.0,500.0,stim,single-stim-button,92,197462,0.0-91.0,dietary_decision,True,0,,Unhealthy,1320.0,health_rating,100Grand,-1.0,38.0,,,,,,10
,818.0,,818.0,500.0,stim,single-stim-button,93,198782,0.0-92.0,dietary_decision,True,0,,Unhealthy,818.0,health_rating,Reeses,-1.0,39.0,,,,,,10
,784.0,,784.0,500.0,stim,single-stim-button,94,200067,0.0-93.0,dietary_decision,True,0,,Unhealthy,784.0,health_rating,uTwix,-1.0,40.0,,,,,,10
,1375.0,,1375.0,500.0,stim,single-stim-button,95,201944,0.0-94.0,dietary_decision,True,0,,Very_Unhealthy,1375.0,health_rating,cellery,-2.0,41.0,,,,,,10
,1537.0,,1537.0,500.0,stim,single-stim-button,96,203984,0.0-95.0,dietary_decision,True,0,,Very_Healthy,1537.0,health_rating,banana,2.0,42.0,,,,,,10
,1418.0,,1418.0,500.0,stim,single-stim-button,97,205903,0.0-96.0,dietary_decision,True,0,,Very_Unhealthy,1418.0,health_rating,wwbrownie,-2.0,43.0,,,,,,10
,2451.0,,2451.0,500.0,stim,single-stim-button,98,208855,0.0-97.0,dietary_decision,True,0,,Neutral,2451.0,health_rating,RiceKrispyTreat,0.0,44.0,,,,,,10
,1246.0,,1246.0,500.0,stim,single-stim-button,99,210601,0.0-98.0,dietary_decision,True,0,,Unhealthy,1246.0,health_rating,slimfastC,-1.0,45.0,,,,,,10
,2452.0,,2452.0,500.0,stim,single-stim-button,100,213555,0.0-99.0,dietary_decision,True,0,,Unhealthy,2452.0,health_rating,blueberryyogart,-1.0,46.0,,,,,,10
,2558.0,,2558.0,500.0,stim,single-stim-button,101,216614,0.0-100.0,dietary_decision,True,0,,Very_Unhealthy,2558.0,health_rating,cookiencream,-2.0,47.0,,,,,,10
,1352.0,,1352.0,500.0,stim,single-stim-button,102,218467,0.0-101.0,dietary_decision,True,0,,Very_Healthy,1352.0,health_rating,reddelicious,2.0,48.0,,,,,,10
,2701.0,,2701.0,500.0,stim,single-stim-button,103,221671,0.0-102.0,dietary_decision,True,0,,Healthy,2701.0,health_rating,carrots,1.0,49.0,,,,,,10
,2516.0,,2516.0,500.0,stim,single-stim-button,54,151459,0.0-53.0,dietary_decision,True,0,,Very_Healthy,2516.0,health_rating,slimfastC,2.0,0.0,,,,,,11
,2435.0,,2435.0,500.0,stim,single-stim-button,55,154405,0.0-54.0,dietary_decision,True,0,,Very_Unhealthy,2435.0,health_rating,MrsFields,-2.0,1.0,,,,,,11
,1202.0,,1202.0,500.0,stim,single-stim-button,56,156121,0.0-55.0,dietary_decision,True,0,,Very_Unhealthy,1202.0,health_rating,FamousAmos,-2.0,2.0,,,,,,11
,999.0,,999.0,500.0,stim,single-stim-button,57,157630,0.0-56.0,dietary_decision,True,0,,Very_Unhealthy,999.0,health_rating,raisins,-2.0,3.0,,,,,,11
,2115.0,,2115.0,500.0,stim,single-stim-button,58,160247,0.0-57.0,dietary_decision,True,0,,Neutral,2115.0,health_rating,frozenyogart,0.0,4.0,,,,,,11
,1924.0,,1924.0,500.0,stim,single-stim-button,59,162684,0.0-58.0,dietary_decision,True,0,,Neutral,1924.0,health_rating,strawberries,0.0,5.0,,,,,,11
,2060.0,,2060.0,500.0,stim,single-stim-button,60,165258,0.0-59.0,dietary_decision,True,0,,Healthy,2060.0,health_rating,reddelicious,1.0,6.0,,,,,,11
,1396.0,,1396.0,500.0,stim,single-stim-button,61,167167,0.0-60.0,dietary_decision,True,0,,Neutral,1396.0,health_rating,mixedyogart,0.0,7.0,,,,,,11
,1378.0,,1378.0,500.0,stim,single-stim-button,62,169051,0.0-61.0,dietary_decision,True,0,,Neutral,1378.0,health_rating,grannysmith,0.0,8.0,,,,,,11
,2861.0,,2861.0,500.0,stim,single-stim-button,63,172417,0.0-62.0,dietary_decision,True,0,,Unhealthy,2861.0,health_rating,100Grand,-1.0,9.0,,,,,,11
,3878.0,,3878.0,500.0,stim,single-stim-button,64,176802,0.0-63.0,dietary_decision,True,0,,Neutral,3878.0,health_rating,specialKbar,0.0,10.0,,,,,,11
,1402.0,,1402.0,500.0,stim,single-stim-button,65,178713,0.0-64.0,dietary_decision,True,0,,Neutral,1402.0,health_rating,whitegrapes,0.0,11.0,,,,,,11
,1924.0,,1924.0,500.0,stim,single-stim-button,66,181146,0.0-65.0,dietary_decision,True,0,,Neutral,1924.0,health_rating,RiceKrispyTreat,0.0,12.0,,,,,,11
,1881.0,,1881.0,500.0,stim,single-stim-button,67,183530,0.0-66.0,dietary_decision,True,0,,Neutral,1881.0,health_rating,cellery,0.0,13.0,,,,,,11
,1393.0,,1393.0,500.0,stim,single-stim-button,68,185426,0.0-67.0,dietary_decision,True,0,,Neutral,1393.0,health_rating,carrots,0.0,14.0,,,,,,11
,1951.0,,1951.0,500.0,stim,single-stim-button,69,187892,0.0-68.0,dietary_decision,True,0,,Unhealthy,1951.0,health_rating,Doritosranch,-1.0,15.0,,,,,,11
,826.0,,826.0,500.0,stim,single-stim-button,70,189232,0.0-69.0,dietary_decision,True,0,,Unhealthy,826.0,health_rating,Reeses,-1.0,16.0,,,,,,11
,828.0,,828.0,500.0,stim,single-stim-button,71,190560,0.0-70.0,dietary_decision,True,0,,Unhealthy,828.0,health_rating,cherryicecream,-1.0,17.0,,,,,,11
,841.0,,841.0,500.0,stim,single-stim-button,72,191905,0.0-71.0,dietary_decision,True,0,,Unhealthy,841.0,health_rating,Ghiradelli,-1.0,18.0,,,,,,11
,743.0,,743.0,500.0,stim,single-stim-button,73,193160,0.0-72.0,dietary_decision,True,0,,Unhealthy,743.0,health_rating,ChipsAhoy,-1.0,19.0,,,,,,11
,1863.0,,1863.0,500.0,stim,single-stim-button,74,195533,0.0-73.0,dietary_decision,True,0,,Very_Unhealthy,1863.0,health_rating,laysclassic,-2.0,20.0,,,,,,11
,1348.0,,1348.0,500.0,stim,single-stim-button,75,197395,0.0-74.0,dietary_decision,True,0,,Unhealthy,1348.0,health_rating,icecreamsandwich,-1.0,21.0,,,,,,11
,839.0,,839.0,500.0,stim,single-stim-button,76,198748,0.0-75.0,dietary_decision,True,0,,Unhealthy,839.0,health_rating,KitKat,-1.0,22.0,,,,,,11
,789.0,,789.0,500.0,stim,single-stim-button,77,200045,0.0-76.0,dietary_decision,True,0,,Unhealthy,789.0,health_rating,blueberryyogart,-1.0,23.0,,,,,,11
,1154.0,,1154.0,500.0,stim,single-stim-button,78,201700,0.0-77.0,dietary_decision,True,0,,Neutral,1154.0,health_rating,orange,0.0,24.0,,,,,,11
,1324.0,,1324.0,500.0,stim,single-stim-button,79,203536,0.0-78.0,dietary_decision,True,0,,Unhealthy,1324.0,health_rating,butterfinger,-1.0,25.0,,,,,,11
,1421.0,,1421.0,500.0,stim,single-stim-button,80,205458,0.0-79.0,dietary_decision,True,0,,Unhealthy,1421.0,health_rating,uToberlorone,-1.0,26.0,,,,,,11
,778.0,,778.0,500.0,stim,single-stim-button,81,206752,0.0-80.0,dietary_decision,True,0,,Unhealthy,778.0,health_rating,keeblerrainbow,-1.0,27.0,,,,,,11
,1595.0,,1595.0,500.0,stim,single-stim-button,82,208849,0.0-81.0,dietary_decision,True,0,,Neutral,1595.0,health_rating,cranberries,0.0,28.0,,,,,,11
,3345.0,,3345.0,500.0,stim,single-stim-button,83,212708,0.0-82.0,dietary_decision,True,0,,Neutral,3345.0,health_rating,wheatcrisps,0.0,29.0,,,,,,11
,2513.0,,2513.0,500.0,stim,single-stim-button,84,215736,0.0-83.0,dietary_decision,True,0,,Unhealthy,2513.0,health_rating,strussel,-1.0,30.0,,,,,,11
,2220.0,,2220.0,500.0,stim,single-stim-button,85,218459,0.0-84.0,dietary_decision,True,0,,Unhealthy,2220.0,health_rating,Lindt,-1.0,31.0,,,,,,11
,1445.0,,1445.0,500.0,stim,single-stim-button,86,220409,0.0-85.0,dietary_decision,True,0,,Neutral,1445.0,health_rating,brocollincauliflower,0.0,32.0,,,,,,11
,1376.0,,1376.0,500.0,stim,single-stim-button,87,222294,0.0-86.0,dietary_decision,True,0,,Unhealthy,1376.0,health_rating,wwbrownie,-1.0,33.0,,,,,,11
,1244.0,,1244.0,500.0,stim,single-stim-button,88,224047,0.0-87.0,dietary_decision,True,0,,Neutral,1244.0,health_rating,banana,0.0,34.0,,,,,,11
,2652.0,,2652.0,500.0,stim,single-stim-button,89,227210,0.0-88.0,dietary_decision,True,0,,Unhealthy,2652.0,health_rating,ruffles,-1.0,35.0,,,,,,11
,1633.0,,1633.0,500.0,stim,single-stim-button,90,229352,0.0-89.0,dietary_decision,True,0,,Unhealthy,1633.0,health_rating,HoHo,-1.0,36.0,,,,,,11
,1161.0,,1161.0,500.0,stim,single-stim-button,91,231027,0.0-90.0,dietary_decision,True,0,,Unhealthy,1161.0,health_rating,Oreos,-1.0,37.0,,,,,,11
,1099.0,,1099.0,500.0,stim,single-stim-button,92,232640,0.0-91.0,dietary_decision,True,0,,Unhealthy,1099.0,health_rating,cookiencream,-1.0,38.0,,,,,,11
,1048.0,,1048.0,500.0,stim,single-stim-button,93,234189,0.0-92.0,dietary_decision,True,0,,Unhealthy,1048.0,health_rating,cookies,-1.0,39.0,,,,,,11
,1914.0,,1914.0,500.0,stim,single-stim-button,94,236610,0.0-93.0,dietary_decision,True,0,,Neutral,1914.0,health_rating,ffraspsorbet,0.0,40.0,,,,,,11
,1126.0,,1126.0,500.0,stim,single-stim-button,95,238245,0.0-94.0,dietary_decision,True,0,,Unhealthy,1126.0,health_rating,sbdietbar,-1.0,41.0,,,,,,11
,1434.0,,1434.0,500.0,stim,single-stim-button,96,240183,0.0-95.0,dietary_decision,True,0,,Neutral,1434.0,health_rating,redgrapes,0.0,42.0,,,,,,11
,1268.0,,1268.0,500.0,stim,single-stim-button,97,241963,0.0-96.0,dietary_decision,True,0,,Unhealthy,1268.0,health_rating,uTwix,-1.0,43.0,,,,,,11
,2015.0,,2015.0,500.0,stim,single-stim-button,98,244488,0.0-97.0,dietary_decision,True,0,,Neutral,2015.0,health_rating,sbcrackers,0.0,44.0,,,,,,11
,1473.0,,1473.0,500.0,stim,single-stim-button,99,246462,0.0-98.0,dietary_decision,True,0,,Unhealthy,1473.0,health_rating,wwmuffin,-1.0,45.0,,,,,,11
,1443.0,,1443.0,500.0,stim,single-stim-button,100,248409,0.0-99.0,dietary_decision,True,0,,Unhealthy,1443.0,health_rating,keeblerfudgestripes,-1.0,46.0,,,,,,11
,1633.0,,1633.0,500.0,stim,single-stim-button,101,250543,0.0-100.0,dietary_decision,True,0,,Unhealthy,1633.0,health_rating,orangejello,-1.0,47.0,,,,,,11
,1578.0,,1578.0,500.0,stim,single-stim-button,102,252632,0.0-101.0,dietary_decision,True,0,,Very_Unhealthy,1578.0,health_rating,FlamingCheetos,-2.0,48.0,,,,,,11
,2724.0,,2724.0,500.0,stim,single-stim-button,103,255859,0.0-102.0,dietary_decision,True,0,,Neutral,2724.0,health_rating,slimfastV,0.0,49.0,,,,,,11
,3163.0,,3163.0,500.0,stim,single-stim-button,3,12799,0.0-2.0,dietary_decision,True,0,,Neutral,3163.0,health_rating,orangejello,0.0,0.0,,,,,,12
,3450.0,,3450.0,500.0,stim,single-stim-button,4,16750,0.0-3.0,dietary_decision,True,0,,Unhealthy,3450.0,health_rating,icecreamsandwich,-1.0,1.0,,,,,,12
,3204.0,,3204.0,500.0,stim,single-stim-button,5,20455,0.0-4.0,dietary_decision,True,0,,Neutral,3204.0,health_rating,cookiencream,0.0,2.0,,,,,,12
,1982.0,,1982.0,500.0,stim,single-stim-button,8,31952,0.0-7.0,dietary_decision,True,0,,Very_Healthy,1982.0,health_rating,whitegrapes,2.0,5.0,,,,,,12
,1440.0,,1440.0,500.0,stim,single-stim-button,9,33894,0.0-8.0,dietary_decision,True,0,,Neutral,1440.0,health_rating,strussel,0.0,6.0,,,,,,12
,1082.0,,1082.0,500.0,stim,single-stim-button,10,35478,0.0-9.0,dietary_decision,True,0,,Neutral,1082.0,health_rating,wwbrownie,0.0,7.0,,,,,,12
,794.0,,794.0,500.0,stim,single-stim-button,11,36774,0.0-10.0,dietary_decision,True,0,,Neutral,794.0,health_rating,mixedyogart,0.0,8.0,,,,,,12
,2221.0,,2221.0,500.0,stim,single-stim-button,12,39497,0.0-11.0,dietary_decision,True,0,,Very_Healthy,2221.0,health_rating,cellery,2.0,9.0,,,,,,12
,1005.0,,1005.0,500.0,stim,single-stim-button,13,41004,0.0-12.0,dietary_decision,True,0,,Neutral,1005.0,health_rating,Ghiradelli,0.0,10.0,,,,,,12
,624.0,,624.0,500.0,stim,single-stim-button,14,42130,0.0-13.0,dietary_decision,True,0,,Neutral,624.0,health_rating,sbcrackers,0.0,11.0,,,,,,12
,1079.0,,1079.0,500.0,stim,single-stim-button,15,43711,0.0-14.0,dietary_decision,True,0,,Very_Healthy,1079.0,health_rating,redgrapes,2.0,12.0,,,,,,12
,879.0,,879.0,500.0,stim,single-stim-button,16,45092,0.0-15.0,dietary_decision,True,0,,Neutral,879.0,health_rating,keeblerrainbow,0.0,13.0,,,,,,12
,856.0,,856.0,500.0,stim,single-stim-button,17,46450,0.0-16.0,dietary_decision,True,0,,Neutral,856.0,health_rating,Oreos,0.0,14.0,,,,,,12
,1613.0,,1613.0,500.0,stim,single-stim-button,18,48564,0.0-17.0,dietary_decision,True,0,,Very_Healthy,1613.0,health_rating,brocollincauliflower,2.0,15.0,,,,,,12
,1547.0,,1547.0,500.0,stim,single-stim-button,19,50612,0.0-18.0,dietary_decision,True,0,,Very_Healthy,1547.0,health_rating,strawberries,2.0,16.0,,,,,,12
,2197.0,,2197.0,500.0,stim,single-stim-button,20,53310,0.0-19.0,dietary_decision,True,0,,Healthy,2197.0,health_rating,slimfastV,1.0,17.0,,,,,,12
,1315.0,,1315.0,500.0,stim,single-stim-button,21,55126,0.0-20.0,dietary_decision,True,0,,Neutral,1315.0,health_rating,RiceKrispyTreat,0.0,18.0,,,,,,12
,594.0,,594.0,500.0,stim,single-stim-button,22,56221,0.0-21.0,dietary_decision,True,0,,Neutral,594.0,health_rating,KitKat,0.0,19.0,,,,,,12
,2177.0,,2177.0,500.0,stim,single-stim-button,23,58900,0.0-22.0,dietary_decision,True,0,,Unhealthy,2177.0,health_rating,wwmuffin,-1.0,20.0,,,,,,12
,1604.0,,1604.0,500.0,stim,single-stim-button,24,61005,0.0-23.0,dietary_decision,True,0,,Unhealthy,1604.0,health_rating,cherryicecream,-1.0,21.0,,,,,,12
,880.0,,880.0,500.0,stim,single-stim-button,25,62387,0.0-24.0,dietary_decision,True,0,,Unhealthy,880.0,health_rating,FamousAmos,-1.0,22.0,,,,,,12
,1484.0,,1484.0,500.0,stim,single-stim-button,26,64373,0.0-25.0,dietary_decision,True,0,,Very_Healthy,1484.0,health_rating,raisins,2.0,23.0,,,,,,12
,1127.0,,1127.0,500.0,stim,single-stim-button,27,66002,0.0-26.0,dietary_decision,True,0,,Very_Healthy,1127.0,health_rating,sbdietbar,2.0,24.0,,,,,,12
,1516.0,,1516.0,500.0,stim,single-stim-button,28,68020,0.0-27.0,dietary_decision,True,0,,Neutral,1516.0,health_rating,HoHo,0.0,25.0,,,,,,12
,743.0,,743.0,500.0,stim,single-stim-button,29,69265,0.0-28.0,dietary_decision,True,0,,Neutral,743.0,health_rating,keeblerfudgestripes,0.0,26.0,,,,,,12
,1529.0,,1529.0,500.0,stim,single-stim-button,30,71296,0.0-29.0,dietary_decision,True,0,,Very_Healthy,1529.0,health_rating,carrots,2.0,27.0,,,,,,12
,1313.0,,1313.0,500.0,stim,single-stim-button,31,73111,0.0-30.0,dietary_decision,True,0,,Very_Healthy,1313.0,health_rating,grannysmith,2.0,28.0,,,,,,12
,871.0,,871.0,500.0,stim,single-stim-button,32,74483,0.0-31.0,dietary_decision,True,0,,Very_Healthy,871.0,health_rating,ffraspsorbet,2.0,29.0,,,,,,12
,707.0,,707.0,500.0,stim,single-stim-button,33,75692,0.0-32.0,dietary_decision,True,0,,Very_Healthy,707.0,health_rating,wheatcrisps,2.0,30.0,,,,,,12
,771.0,,771.0,500.0,stim,single-stim-button,34,76964,0.0-33.0,dietary_decision,True,0,,Very_Healthy,771.0,health_rating,butterfinger,2.0,31.0,,,,,,12
,1023.0,,1023.0,500.0,stim,single-stim-button,35,78488,0.0-34.0,dietary_decision,True,0,,Very_Healthy,1023.0,health_rating,reddelicious,2.0,32.0,,,,,,12
,749.0,,749.0,500.0,stim,single-stim-button,36,79738,0.0-35.0,dietary_decision,True,0,,Neutral,749.0,health_rating,uToberlorone,0.0,33.0,,,,,,12
,1202.0,,1202.0,500.0,stim,single-stim-button,37,81443,0.0-36.0,dietary_decision,True,0,,Very_Healthy,1202.0,health_rating,banana,2.0,34.0,,,,,,12
,1540.0,,1540.0,500.0,stim,single-stim-button,38,83485,0.0-37.0,dietary_decision,True,0,,Unhealthy,1540.0,health_rating,laysclassic,-1.0,35.0,,,,,,12
,1462.0,,1462.0,500.0,stim,single-stim-button,39,85449,0.0-38.0,dietary_decision,True,0,,Very_Healthy,1462.0,health_rating,orange,2.0,36.0,,,,,,12
,1651.0,,1651.0,500.0,stim,single-stim-button,40,87602,0.0-39.0,dietary_decision,True,0,,Neutral,1651.0,health_rating,MrsFields,0.0,37.0,,,,,,12
,525.0,,525.0,500.0,stim,single-stim-button,41,88629,0.0-40.0,dietary_decision,True,0,,Neutral,525.0,health_rating,FlamingCheetos,0.0,38.0,,,,,,12
,651.0,,651.0,500.0,stim,single-stim-button,42,89782,0.0-41.0,dietary_decision,True,0,,Neutral,651.0,health_rating,ChipsAhoy,0.0,39.0,,,,,,12
,482.0,,482.0,500.0,stim,single-stim-button,43,90765,0.0-42.0,dietary_decision,True,0,,Neutral,482.0,health_rating,Doritosranch,0.0,40.0,,,,,,12
,294.0,,294.0,500.0,stim,single-stim-button,44,91560,0.0-43.0,dietary_decision,True,0,,Neutral,294.0,health_rating,Lindt,0.0,41.0,,,,,,12
,362.0,,362.0,500.0,stim,single-stim-button,45,92424,0.0-44.0,dietary_decision,True,0,,Neutral,362.0,health_rating,blueberryyogart,0.0,42.0,,,,,,12
,1393.0,,1393.0,500.0,stim,single-stim-button,46,94318,0.0-45.0,dietary_decision,True,0,,Very_Healthy,1393.0,health_rating,cranberries,2.0,43.0,,,,,,12
,1040.0,,1040.0,500.0,stim,single-stim-button,47,95859,0.0-46.0,dietary_decision,True,0,,Neutral,1040.0,health_rating,100Grand,0.0,44.0,,,,,,12
,2048.0,,2048.0,500.0,stim,single-stim-button,48,98408,0.0-47.0,dietary_decision,True,0,,Neutral,2048.0,health_rating,uTwix,0.0,45.0,,,,,,12
,758.0,,758.0,500.0,stim,single-stim-button,49,99668,0.0-48.0,dietary_decision,True,0,,Neutral,758.0,health_rating,specialKbar,0.0,46.0,,,,,,12
,692.0,,692.0,500.0,stim,single-stim-button,50,100860,0.0-49.0,dietary_decision,True,0,,Neutral,692.0,health_rating,frozenyogart,0.0,47.0,,,,,,12
,496.0,,496.0,500.0,stim,single-stim-button,51,101858,0.0-50.0,dietary_decision,True,0,,Neutral,496.0,health_rating,slimfastC,0.0,48.0,,,,,,12
,376.0,,376.0,500.0,stim,single-stim-button,52,102736,0.0-51.0,dietary_decision,True,0,,Neutral,376.0,health_rating,cookies,0.0,49.0,,,,,,12
,2333.0,,2333.0,500.0,stim,single-stim-button,4,35544,0.0-3.0,dietary_decision,True,0,,Neutral,2333.0,health_rating,ChipsAhoy,0.0,1.0,,,,,,13
,2487.0,,2487.0,500.0,stim,single-stim-button,5,38535,0.0-4.0,dietary_decision,True,0,,Neutral,2487.0,health_rating,icecreamsandwich,0.0,2.0,,,,,,13
,2127.0,,2127.0,500.0,stim,single-stim-button,6,41175,0.0-5.0,dietary_decision,True,0,,Healthy,2127.0,health_rating,orange,1.0,3.0,,,,,,13
,1205.0,,1205.0,500.0,stim,single-stim-button,7,42895,0.0-6.0,dietary_decision,True,0,,Healthy,1205.0,health_rating,redgrapes,1.0,4.0,,,,,,13
,2772.0,,2772.0,500.0,stim,single-stim-button,8,46175,0.0-7.0,dietary_decision,True,0,,Neutral,2772.0,health_rating,FamousAmos,0.0,5.0,,,,,,13
,2423.0,,2423.0,500.0,stim,single-stim-button,9,49102,0.0-8.0,dietary_decision,True,0,,Neutral,2423.0,health_rating,sbcrackers,0.0,6.0,,,,,,13
,2734.0,,2734.0,500.0,stim,single-stim-button,10,52351,0.0-9.0,dietary_decision,True,0,,Unhealthy,2734.0,health_rating,RiceKrispyTreat,-1.0,7.0,,,,,,13
,2565.0,,2565.0,500.0,stim,single-stim-button,11,55423,0.0-10.0,dietary_decision,True,0,,Neutral,2565.0,health_rating,Ghiradelli,0.0,8.0,,,,,,13
,2501.0,,2501.0,500.0,stim,single-stim-button,12,58431,0.0-11.0,dietary_decision,True,0,,Neutral,2501.0,health_rating,sbdietbar,0.0,9.0,,,,,,13
,1636.0,,1636.0,500.0,stim,single-stim-button,14,65096,0.0-13.0,dietary_decision,True,0,,Very_Healthy,1636.0,health_rating,banana,2.0,11.0,,,,,,13
,1862.0,,1862.0,500.0,stim,single-stim-button,15,67464,0.0-14.0,dietary_decision,True,0,,Neutral,1862.0,health_rating,Oreos,0.0,12.0,,,,,,13
,2416.0,,2416.0,500.0,stim,single-stim-button,16,70382,0.0-15.0,dietary_decision,True,0,,Healthy,2416.0,health_rating,cherryicecream,1.0,13.0,,,,,,13
,2406.0,,2406.0,500.0,stim,single-stim-button,17,73304,0.0-16.0,dietary_decision,True,0,,Neutral,2406.0,health_rating,HoHo,0.0,14.0,,,,,,13
,2613.0,,2613.0,500.0,stim,single-stim-button,18,76422,0.0-17.0,dietary_decision,True,0,,Neutral,2613.0,health_rating,orangejello,0.0,15.0,,,,,,13
,3515.0,,3515.0,500.0,stim,single-stim-button,19,80447,0.0-18.0,dietary_decision,True,0,,Neutral,3515.0,health_rating,cellery,0.0,16.0,,,,,,13
,1929.0,,1929.0,500.0,stim,single-stim-button,20,82887,0.0-19.0,dietary_decision,True,0,,Very_Healthy,1929.0,health_rating,reddelicious,2.0,17.0,,,,,,13
,2203.0,,2203.0,500.0,stim,single-stim-button,21,85599,0.0-20.0,dietary_decision,True,0,,Neutral,2203.0,health_rating,ruffles,0.0,18.0,,,,,,13
,1984.0,,1984.0,500.0,stim,single-stim-button,22,88094,0.0-21.0,dietary_decision,True,0,,Unhealthy,1984.0,health_rating,Doritosranch,-1.0,19.0,,,,,,13
,2591.0,,2591.0,500.0,stim,single-stim-button,23,91190,0.0-22.0,dietary_decision,True,0,,Neutral,2591.0,health_rating,blueberryyogart,0.0,20.0,,,,,,13
,2704.0,,2704.0,500.0,stim,single-stim-button,24,94407,0.0-23.0,dietary_decision,True,0,,Neutral,2704.0,health_rating,slimfastC,0.0,21.0,,,,,,13
,1849.0,,1849.0,500.0,stim,single-stim-button,25,96759,0.0-24.0,dietary_decision,True,0,,Healthy,1849.0,health_rating,cookiencream,1.0,22.0,,,,,,13
,1830.0,,1830.0,500.0,stim,single-stim-button,26,99095,0.0-25.0,dietary_decision,True,0,,Very_Healthy,1830.0,health_rating,strawberries,2.0,23.0,,,,,,13
,1841.0,,1841.0,500.0,stim,single-stim-button,27,101447,0.0-26.0,dietary_decision,True,0,,Neutral,1841.0,health_rating,slimfastV,0.0,24.0,,,,,,13
,2166.0,,2166.0,500.0,stim,single-stim-button,28,104128,0.0-27.0,dietary_decision,True,0,,Neutral,2166.0,health_rating,wwmuffin,0.0,25.0,,,,,,13
,1752.0,,1752.0,500.0,stim,single-stim-button,29,106382,0.0-28.0,dietary_decision,True,0,,Neutral,1752.0,health_rating,uToberlorone,0.0,26.0,,,,,,13
,3237.0,,3237.0,500.0,stim,single-stim-button,30,110128,0.0-29.0,dietary_decision,True,0,,Neutral,3237.0,health_rating,uTwix,0.0,27.0,,,,,,13
,1690.0,,1690.0,500.0,stim,single-stim-button,31,112328,0.0-30.0,dietary_decision,True,0,,Very_Healthy,1690.0,health_rating,whitegrapes,2.0,28.0,,,,,,13
,1411.0,,1411.0,500.0,stim,single-stim-button,32,114255,0.0-31.0,dietary_decision,True,0,,Neutral,1411.0,health_rating,wwbrownie,0.0,29.0,,,,,,13
,2524.0,,2524.0,500.0,stim,single-stim-button,33,117287,0.0-32.0,dietary_decision,True,0,,Unhealthy,2524.0,health_rating,carrots,-1.0,30.0,,,,,,13
,2406.0,,2406.0,500.0,stim,single-stim-button,34,120206,0.0-33.0,dietary_decision,True,0,,Neutral,2406.0,health_rating,cookies,0.0,31.0,,,,,,13
,1352.0,,1352.0,500.0,stim,single-stim-button,35,122071,0.0-34.0,dietary_decision,True,0,,Very_Healthy,1352.0,health_rating,grannysmith,2.0,32.0,,,,,,13
,2173.0,,2173.0,500.0,stim,single-stim-button,36,124759,0.0-35.0,dietary_decision,True,0,,Neutral,2173.0,health_rating,laysclassic,0.0,33.0,,,,,,13
,3010.0,,3010.0,500.0,stim,single-stim-button,37,128271,0.0-36.0,dietary_decision,True,0,,Healthy,3010.0,health_rating,brocollincauliflower,1.0,34.0,,,,,,13
,1716.0,,1716.0,500.0,stim,single-stim-button,38,130495,0.0-37.0,dietary_decision,True,0,,Neutral,1716.0,health_rating,Reeses,0.0,35.0,,,,,,13
,1553.0,,1553.0,500.0,stim,single-stim-button,39,132551,0.0-38.0,dietary_decision,True,0,,Neutral,1553.0,health_rating,raisins,0.0,36.0,,,,,,13
,2154.0,,2154.0,500.0,stim,single-stim-button,41,139735,0.0-40.0,dietary_decision,True,0,,Neutral,2154.0,health_rating,MrsFields,0.0,38.0,,,,,,13
,2552.0,,2552.0,500.0,stim,single-stim-button,42,142791,0.0-41.0,dietary_decision,True,0,,Neutral,2552.0,health_rating,keeblerfudgestripes,0.0,39.0,,,,,,13
,1527.0,,1527.0,500.0,stim,single-stim-button,43,144831,0.0-42.0,dietary_decision,True,0,,Neutral,1527.0,health_rating,100Grand,0.0,40.0,,,,,,13
,3045.0,,3045.0,500.0,stim,single-stim-button,44,148391,0.0-43.0,dietary_decision,True,0,,Healthy,3045.0,health_rating,wheatcrisps,1.0,41.0,,,,,,13
,2600.0,,2600.0,500.0,stim,single-stim-button,45,151494,0.0-44.0,dietary_decision,True,0,,Neutral,2600.0,health_rating,KitKat,0.0,42.0,,,,,,13
,1872.0,,1872.0,500.0,stim,single-stim-button,46,153871,0.0-45.0,dietary_decision,True,0,,Neutral,1872.0,health_rating,strussel,0.0,43.0,,,,,,13
,2071.0,,2071.0,500.0,stim,single-stim-button,47,156447,0.0-46.0,dietary_decision,True,0,,Healthy,2071.0,health_rating,cranberries,1.0,44.0,,,,,,13
,1175.0,,1175.0,500.0,stim,single-stim-button,48,158135,0.0-47.0,dietary_decision,True,0,,Neutral,1175.0,health_rating,keeblerrainbow,0.0,45.0,,,,,,13
,1830.0,,1830.0,500.0,stim,single-stim-button,49,160471,0.0-48.0,dietary_decision,True,0,,Neutral,1830.0,health_rating,Lindt,0.0,46.0,,,,,,13
,1179.0,,1179.0,500.0,stim,single-stim-button,50,162160,0.0-49.0,dietary_decision,True,0,,Neutral,1179.0,health_rating,mixedyogart,0.0,47.0,,,,,,13
,2455.0,,2455.0,500.0,stim,single-stim-button,51,165119,0.0-50.0,dietary_decision,True,0,,Unhealthy,2455.0,health_rating,butterfinger,-1.0,48.0,,,,,,13
,3230.0,,3230.0,500.0,stim,single-stim-button,52,168855,0.0-51.0,dietary_decision,True,0,,Healthy,3230.0,health_rating,frozenyogart,1.0,49.0,,,,,,13
,1753.0,,1753.0,500.0,stim,single-stim-button,3,3580350,0.0-2.0,dietary_decision,True,0,,Unhealthy,1753.0,health_rating,wheatcrisps,-1.0,0.0,,,,,,14
,2241.0,,2241.0,500.0,stim,single-stim-button,4,3583091,0.0-3.0,dietary_decision,True,0,,Unhealthy,2241.0,health_rating,sbdietbar,-1.0,1.0,,,,,,14
,1384.0,,1384.0,500.0,stim,single-stim-button,5,3584977,0.0-4.0,dietary_decision,True,0,,Unhealthy,1384.0,health_rating,butterfinger,-1.0,2.0,,,,,,14
,1521.0,,1521.0,500.0,stim,single-stim-button,6,3587000,0.0-5.0,dietary_decision,True,0,,Unhealthy,1521.0,health_rating,cookies,-1.0,3.0,,,,,,14
,972.0,,972.0,500.0,stim,single-stim-button,7,3588473,0.0-6.0,dietary_decision,True,0,,Unhealthy,972.0,health_rating,Doritosranch,-1.0,4.0,,,,,,14
,784.0,,784.0,500.0,stim,single-stim-button,8,3589757,0.0-7.0,dietary_decision,True,0,,Neutral,784.0,health_rating,raisins,0.0,5.0,,,,,,14
